trials.thisRepN,trials.thisTrialN,trials.thisN,trials.thisIndex,thisRow.t,notes,trial.started,num_distr,fixation.started,target.started,mouse.started,trial.stopped,mouse.x,mouse.y,mouse.leftButton,mouse.midButton,mouse.rightButton,mouse.time,mouse.clicked_name,participant,session,date,expName,psychopyVersion,frameRate,expStart,
0,0,0,0,0.060017399955540895,,0.010806999984197319,5,0.060017399955540895,0.060017399955540895,0.045667999889701605,1.5236345999874175,[-0.21388888888888888],[-0.27870370370370373],[1],[0],[0],[1.476969200070016],[],590460,001,2024-10-10_19h35.56.830,Task3_VisualSearch,2024.1.5,None,2024-10-10 19h36.09.023322 +0530,
1,0,1,0,1.5710401999531314,,1.5346073999535292,5,1.5710401999531314,1.5710401999531314,0.02972530003171414,3.8193287999602035,[0.1037037037037037],[0.46944444444444444],[1],[0],[0],[2.2562246000161394],['target'],590460,001,2024-10-10_19h35.56.830,Task3_VisualSearch,2024.1.5,None,2024-10-10 19h36.09.023322 +0530,
2,0,2,0,3.8499236999778077,,3.8255289000226185,5,3.8499236999778077,3.8499236999778077,0.01776020007673651,5.119861699989997,[0.028703703703703703],[0.07592592592592592],[1],[0],[0],[1.2769246000098065],['target'],590460,001,2024-10-10_19h35.56.830,Task3_VisualSearch,2024.1.5,None,2024-10-10 19h36.09.023322 +0530,
3,0,3,0,5.184829199919477,,5.127696699928492,10,5.184829199919477,5.184829199919477,0.04309679998550564,6.342214999953285,[-0.23055555555555557],[0.29907407407407405],[1],[0],[0],[1.172531499993056],['target'],590460,001,2024-10-10_19h35.56.830,Task3_VisualSearch,2024.1.5,None,2024-10-10 19h36.09.023322 +0530,
4,0,4,0,6.4085601000115275,,6.347821899922565,10,6.4085601000115275,6.4085601000115275,0.04503240005578846,7.809679599944502,[0.3101851851851852],[-0.021296296296296296],[1],[0],[0],[1.4174666999606416],['target'],590460,001,2024-10-10_19h35.56.830,Task3_VisualSearch,2024.1.5,None,2024-10-10 19h36.09.023322 +0530,
5,0,5,0,7.841627800022252,,7.815513800014742,5,7.841627800022252,7.841627800022252,0.016858500079251826,8.85285219992511,[-0.2574074074074074],[0.1287037037037037],[1],[0],[0],[1.0208105999045074],['target'],590460,001,2024-10-10_19h35.56.830,Task3_VisualSearch,2024.1.5,None,2024-10-10 19h36.09.023322 +0530,
6,0,6,0,8.90967720001936,,8.860350799979642,5,8.90967720001936,8.90967720001936,0.03270330000668764,11.053203399991617,[0.3453703703703704],[-0.33425925925925926],[1],[0],[0],[2.160328899975866],['target'],590460,001,2024-10-10_19h35.56.830,Task3_VisualSearch,2024.1.5,None,2024-10-10 19h36.09.023322 +0530,
7,0,7,0,11.132958599948324,,11.060917899943888,10,11.132958599948324,11.132958599948324,0.05296950007323176,13.109945399919525,[0.34814814814814815],[-0.41203703703703703],[1],[0],[0],[1.9969495999393985],['target'],590460,001,2024-10-10_19h35.56.830,Task3_VisualSearch,2024.1.5,None,2024-10-10 19h36.09.023322 +0530,
8,0,8,0,13.168134699924849,,13.117736199987121,10,13.168134699924849,13.168134699924849,0.03534280008170754,14.441298599937,[0.3074074074074074],[-0.2814814814814815],[1],[0],[0],[1.2890850000549108],['target'],590460,001,2024-10-10_19h35.56.830,Task3_VisualSearch,2024.1.5,None,2024-10-10 19h36.09.023322 +0530,
9,0,9,0,14.485140500008129,,14.448839199962094,5,14.485140500008129,14.485140500008129,0.026909400010481477,15.519089999957941,[0.03611111111111111],[-0.3074074074074074],[1],[0],[0],[1.0443671999964863],['target'],590460,001,2024-10-10_19h35.56.830,Task3_VisualSearch,2024.1.5,None,2024-10-10 19h36.09.023322 +0530,
10,0,10,0,15.556338099995628,,15.526612099958584,5,15.556338099995628,15.556338099995628,0.02039600000716746,17.16848739993293,[0.020370370370370372],[-0.3111111111111111],[1],[0],[0],[1.6222528999205679],[],590460,001,2024-10-10_19h35.56.830,Task3_VisualSearch,2024.1.5,None,2024-10-10 19h36.09.023322 +0530,
11,0,11,0,17.230963799986057,,17.176183599978685,10,17.230963799986057,17.230963799986057,0.04087719996459782,18.234518999932334,[-0.2212962962962963],[-0.33611111111111114],[1],[0],[0],[1.0184843000024557],['target'],590460,001,2024-10-10_19h35.56.830,Task3_VisualSearch,2024.1.5,None,2024-10-10 19h36.09.023322 +0530,
12,0,12,0,18.30489749996923,,18.24147140001878,10,18.30489749996923,18.30489749996923,0.04397329990752041,19.817944400012493,[0.43425925925925923],[0.11203703703703703],[1],[0],[0],[1.5336120000574738],['target'],590460,001,2024-10-10_19h35.56.830,Task3_VisualSearch,2024.1.5,None,2024-10-10 19h36.09.023322 +0530,
13,0,13,0,19.866186799947172,,19.821958199958317,10,19.866186799947172,19.866186799947172,0.028313899994827807,21.756510499981232,[-0.4361111111111111],[-0.10925925925925926],[1],[0],[0],[1.9065723000094295],['target'],590460,001,2024-10-10_19h35.56.830,Task3_VisualSearch,2024.1.5,None,2024-10-10 19h36.09.023322 +0530,
14,0,14,0,21.784949699998833,,21.75988889997825,5,21.784949699998833,21.784949699998833,0.01508859999012202,23.390690799918957,[-0.37407407407407406],[-0.3398148148148148],[1],[0],[0],[1.6156029999256134],[],590460,001,2024-10-10_19h35.56.830,Task3_VisualSearch,2024.1.5,None,2024-10-10 19h36.09.023322 +0530,
15,0,15,0,23.479419499984942,,23.398522799951024,10,23.479419499984942,23.479419499984942,0.06374899996444583,24.964345899992622,[0.10462962962962963],[-0.13425925925925927],[1],[0],[0],[1.5033763999817893],['target'],590460,001,2024-10-10_19h35.56.830,Task3_VisualSearch,2024.1.5,None,2024-10-10 19h36.09.023322 +0530,
16,0,16,0,25.011970999999903,,24.970563799957745,5,25.011970999999903,25.011970999999903,0.02940250001847744,26.80168099992443,[0.009259259259259259],[0.4027777777777778],[1],[0],[0],[1.8025603999849409],['target'],590460,001,2024-10-10_19h35.56.830,Task3_VisualSearch,2024.1.5,None,2024-10-10 19h36.09.023322 +0530,
17,0,17,0,26.905247899936512,,26.80939519999083,10,26.905247899936512,26.905247899936512,0.08056749997194856,28.617930299951695,[0.21574074074074073],[-0.1935185185185185],[1],[0],[0],[1.7291722999652848],['target'],590460,001,2024-10-10_19h35.56.830,Task3_VisualSearch,2024.1.5,None,2024-10-10 19h36.09.023322 +0530,
18,0,18,0,28.6475969000021,,28.62233839998953,5,28.6475969000021,28.6475969000021,0.01579649990890175,30.21951079997234,[0.09351851851851851],[-0.4444444444444444],[1],[0],[0],[1.581526800058782],['target'],590460,001,2024-10-10_19h35.56.830,Task3_VisualSearch,2024.1.5,None,2024-10-10 19h36.09.023322 +0530,
19,0,19,0,30.260913499980234,,30.227242599939927,5,30.260913499980234,30.260913499980234,0.02495589992031455,31.51884589996189,[-0.06388888888888888],[-0.3731481481481482],[1],[0],[0],[1.2675902999471873],['target'],590460,001,2024-10-10_19h35.56.830,Task3_VisualSearch,2024.1.5,None,2024-10-10 19h36.09.023322 +0530,
20,0,20,0,31.616378500009887,,31.526568299974315,10,31.616378500009887,31.616378500009887,0.06675750005524606,34.938821799936704,[-0.32592592592592595],[0.4564814814814815],[1],[0],[0],[3.346501599997282],['target'],590460,001,2024-10-10_19h35.56.830,Task3_VisualSearch,2024.1.5,None,2024-10-10 19h36.09.023322 +0530,
21,0,21,0,35.04643109999597,,34.94694779999554,10,35.04643109999597,35.04643109999597,0.08273579995147884,37.38829089992214,[0.3490740740740741],[0.4703703703703704],[1],[0],[0],[2.3597360000712797],['target'],590460,001,2024-10-10_19h35.56.830,Task3_VisualSearch,2024.1.5,None,2024-10-10 19h36.09.023322 +0530,
22,0,22,0,37.462287300033495,,37.395060100010596,10,37.462287300033495,37.462287300033495,0.042263500043191016,39.304450599942356,[-0.4861111111111111],[-0.2462962962962963],[1],[0],[0],[1.868170400033705],['target'],590460,001,2024-10-10_19h35.56.830,Task3_VisualSearch,2024.1.5,None,2024-10-10 19h36.09.023322 +0530,
23,0,23,0,39.33399219997227,,39.309606199967675,5,39.33399219997227,39.33399219997227,0.0154264000011608,41.157586099929176,[0.47129629629629627],[-0.4462962962962963],[1],[0],[0],[1.8328919000923634],['target'],590460,001,2024-10-10_19h35.56.830,Task3_VisualSearch,2024.1.5,None,2024-10-10 19h36.09.023322 +0530,
24,0,24,0,41.19421059999149,,41.16516849992331,5,41.19421059999149,41.19421059999149,0.01983989996369928,42.51740399992559,[-0.4027777777777778],[0.4361111111111111],[1],[0],[0],[1.333495800034143],['target'],590460,001,2024-10-10_19h35.56.830,Task3_VisualSearch,2024.1.5,None,2024-10-10 19h36.09.023322 +0530,
25,0,25,0,42.55371040001046,,42.52466839994304,5,42.55371040001046,42.55371040001046,0.021098900004290044,43.850525700021535,[-0.000925925925925926],[0.362962962962963],[1],[0],[0],[1.3055861999746412],['target'],590460,001,2024-10-10_19h35.56.830,Task3_VisualSearch,2024.1.5,None,2024-10-10 19h36.09.023322 +0530,
26,0,26,0,43.94059579994064,,43.856793600018136,10,43.94059579994064,43.94059579994064,0.05792080005630851,46.48924020002596,[0.3851851851851852],[0.17592592592592593],[1],[0],[0],[2.575103500043042],['target'],590460,001,2024-10-10_19h35.56.830,Task3_VisualSearch,2024.1.5,None,2024-10-10 19h36.09.023322 +0530,
27,0,27,0,46.53961989993695,,46.493690299917944,10,46.53961989993695,46.53961989993695,0.029304899973794818,47.65753019996919,[0.2712962962962963],[0.16296296296296298],[1],[0],[0],[1.1350036999210715],['target'],590460,001,2024-10-10_19h35.56.830,Task3_VisualSearch,2024.1.5,None,2024-10-10 19h36.09.023322 +0530,
28,0,28,0,47.736584799946286,,47.66291439998895,10,47.736584799946286,47.736584799946286,0.05261729995254427,50.27020030003041,[-0.014814814814814815],[-0.03888888888888889],[1],[0],[0],[2.5552394998958334],['target'],590460,001,2024-10-10_19h35.56.830,Task3_VisualSearch,2024.1.5,None,2024-10-10 19h36.09.023322 +0530,
29,0,29,0,50.3015264000278,,50.27509190002456,5,50.3015264000278,50.3015264000278,0.01654660003259778,51.5011040000245,[-0.16111111111111112],[0.19722222222222222],[1],[0],[0],[1.209695199970156],['target'],590460,001,2024-10-10_19h35.56.830,Task3_VisualSearch,2024.1.5,None,2024-10-10 19h36.09.023322 +0530,
30,0,30,0,51.58707809995394,,51.50867869996,10,51.58707809995394,51.58707809995394,0.060530099901370704,53.499622999923304,[0.1925925925925926],[-0.4740740740740741],[1],[0],[0],[1.931523700011894],[],590460,001,2024-10-10_19h35.56.830,Task3_VisualSearch,2024.1.5,None,2024-10-10 19h36.09.023322 +0530,
31,0,31,0,53.54713249998167,,53.503934799926355,10,53.54713249998167,53.54713249998167,0.028487700037658215,57.36891540000215,[-0.20277777777777778],[0.32037037037037036],[1],[0],[0],[3.8369075000518933],['target'],590460,001,2024-10-10_19h35.56.830,Task3_VisualSearch,2024.1.5,None,2024-10-10 19h36.09.023322 +0530,
32,0,32,0,57.39754629996605,,57.372572700027376,5,57.39754629996605,57.39754629996605,0.01529780006967485,58.866972999996506,[-0.1574074074074074],[-0.007407407407407408],[1],[0],[0],[1.4791102999588475],['target'],590460,001,2024-10-10_19h35.56.830,Task3_VisualSearch,2024.1.5,None,2024-10-10 19h36.09.023322 +0530,
33,0,33,0,58.93655939993914,,58.87475469999481,10,58.93655939993914,58.93655939993914,0.04664389998652041,60.201613800018094,[0.16574074074074074],[0.1527777777777778],[1],[0],[0],[1.2814229000359774],['target'],590460,001,2024-10-10_19h35.56.830,Task3_VisualSearch,2024.1.5,None,2024-10-10 19h36.09.023322 +0530,
34,0,34,0,60.281405100016855,,60.20673420000821,10,60.281405100016855,60.281405100016855,0.05071339989081025,62.23341889993753,[-0.43796296296296294],[-0.21851851851851853],[1],[0],[0],[1.9764841999858618],[],590460,001,2024-10-10_19h35.56.830,Task3_VisualSearch,2024.1.5,None,2024-10-10 19h36.09.023322 +0530,
35,0,35,0,62.32201080000959,,62.238648999948055,10,62.32201080000959,62.32201080000959,0.05902409995906055,65.3207098999992,[0.4898148148148148],[-0.26296296296296295],[1],[0],[0],[3.0235399999655783],['target'],590460,001,2024-10-10_19h35.56.830,Task3_VisualSearch,2024.1.5,None,2024-10-10 19h36.09.023322 +0530,
36,0,36,0,65.36016479996033,,65.32836219994351,5,65.36016479996033,65.36016479996033,0.023347700014710426,66.3666640999727,[-0.13333333333333333],[0.38333333333333336],[1],[0],[0],[1.0158102000132203],['target'],590460,001,2024-10-10_19h35.56.830,Task3_VisualSearch,2024.1.5,None,2024-10-10 19h36.09.023322 +0530,
37,0,37,0,66.43930059997365,,66.37438990001101,10,66.43930059997365,66.43930059997365,0.047305500018410385,67.37786789995153,[0.28055555555555556],[0.2],[1],[0],[0],[0.9572290000505745],[],590460,001,2024-10-10_19h35.56.830,Task3_VisualSearch,2024.1.5,None,2024-10-10 19h36.09.023322 +0530,
38,0,38,0,67.43386250000913,,67.38492819992825,10,67.43386250000913,67.43386250000913,0.033187199966050684,68.5945756000001,[0.3055555555555556],[0.2537037037037037],[1],[0],[0],[1.1770963999442756],['target'],590460,001,2024-10-10_19h35.56.830,Task3_VisualSearch,2024.1.5,None,2024-10-10 19h36.09.023322 +0530,
39,0,39,0,68.69960109994281,,68.60179009998683,10,68.69960109994281,68.69960109994281,0.0733602000400424,72.15224919992033,[-0.42407407407407405],[0.05740740740740741],[1],[0],[0],[3.478302999981679],['target'],590460,001,2024-10-10_19h35.56.830,Task3_VisualSearch,2024.1.5,None,2024-10-10 19h36.09.023322 +0530,
40,0,40,0,72.17948459996842,,72.15553460002411,5,72.17948459996842,72.17948459996842,0.014356900006532669,73.75132709997706,[0.18518518518518517],[-0.22777777777777777],[1],[0],[0],[1.5813590999459848],['target'],590460,001,2024-10-10_19h35.56.830,Task3_VisualSearch,2024.1.5,None,2024-10-10 19h36.09.023322 +0530,
41,0,41,0,73.80375580000691,,73.75912569998764,5,73.80375580000691,73.80375580000691,0.03200300002936274,74.93720609997399,[-0.3490740740740741],[0.11296296296296296],[1],[0],[0],[1.1469538999954239],['target'],590460,001,2024-10-10_19h35.56.830,Task3_VisualSearch,2024.1.5,None,2024-10-10 19h36.09.023322 +0530,
42,0,42,0,75.00223699992057,,74.94511470000725,10,75.00223699992057,75.00223699992057,0.04222379997372627,76.34115559991915,[0.125],[-0.11481481481481481],[1],[0],[0],[1.3547856999794021],['target'],590460,001,2024-10-10_19h35.56.830,Task3_VisualSearch,2024.1.5,None,2024-10-10 19h36.09.023322 +0530,
43,0,43,0,76.43394319992512,,76.34853740001563,10,76.43394319992512,76.43394319992512,0.06721779995132238,78.34011240000837,[-0.013888888888888888],[-0.3888888888888889],[1],[0],[0],[1.92525490000844],['target'],590460,001,2024-10-10_19h35.56.830,Task3_VisualSearch,2024.1.5,None,2024-10-10 19h36.09.023322 +0530,
44,0,44,0,78.37260589993093,,78.3459501999896,5,78.37260589993093,78.37260589993093,0.01758089999202639,79.93456480000168,[-0.07685185185185185],[0.44814814814814813],[1],[0],[0],[1.5714636999182403],['target'],590460,001,2024-10-10_19h35.56.830,Task3_VisualSearch,2024.1.5,None,2024-10-10 19h36.09.023322 +0530,
45,0,45,0,80.0259266999783,,79.94255389994942,10,80.0259266999783,80.0259266999783,0.0608187000034377,81.15751910000108,[0.14629629629629629],[0.03888888888888889],[1],[0],[0],[1.155169199919328],['target'],590460,001,2024-10-10_19h35.56.830,Task3_VisualSearch,2024.1.5,None,2024-10-10 19h36.09.023322 +0530,
46,0,46,0,81.20804399996996,,81.16502379998565,5,81.20804399996996,81.20804399996996,0.0271161999553442,82.6826982999919,[0.06666666666666667],[0.45092592592592595],[1],[0],[0],[1.4914644999662414],['target'],590460,001,2024-10-10_19h35.56.830,Task3_VisualSearch,2024.1.5,None,2024-10-10 19h36.09.023322 +0530,
47,0,47,0,82.76148729992565,,82.69043529999908,10,82.76148729992565,82.76148729992565,0.04415490000974387,86.2277410000097,[0.48703703703703705],[-0.33240740740740743],[1],[0],[0],[3.4941704999655485],['target'],590460,001,2024-10-10_19h35.56.830,Task3_VisualSearch,2024.1.5,None,2024-10-10 19h36.09.023322 +0530,
48,0,48,0,86.30041899997741,,86.23516689997632,5,86.30041899997741,86.30041899997741,0.05085589992813766,87.88235390000045,[0.38333333333333336],[0.15555555555555556],[1],[0],[0],[1.5971993999555707],['target'],590460,001,2024-10-10_19h35.56.830,Task3_VisualSearch,2024.1.5,None,2024-10-10 19h36.09.023322 +0530,
49,0,49,0,87.94940809998661,,87.89022279996425,10,87.94940809998661,87.94940809998661,0.04255699994973838,90.28978999995161,[0.05092592592592592],[-0.05462962962962963],[1],[0],[0],[2.3581750000594184],['target'],590460,001,2024-10-10_19h35.56.830,Task3_VisualSearch,2024.1.5,None,2024-10-10 19h36.09.023322 +0530,
50,0,50,0,90.34884470002726,,90.29388509993441,5,90.34884470002726,90.34884470002726,0.044659200008027256,91.38297199993394,[0.06851851851851852],[0.1287037037037037],[1],[0],[0],[1.04462760000024],['target'],590460,001,2024-10-10_19h35.56.830,Task3_VisualSearch,2024.1.5,None,2024-10-10 19h36.09.023322 +0530,
51,0,51,0,91.43502590002026,,91.39073149999604,5,91.43502590002026,91.43502590002026,0.03338670008815825,92.4987901999848,[-0.3194444444444444],[-0.03888888888888889],[1],[0],[0],[1.0756682999199256],['target'],590460,001,2024-10-10_19h35.56.830,Task3_VisualSearch,2024.1.5,None,2024-10-10 19h36.09.023322 +0530,
52,0,52,0,92.55111899995245,,92.506908499985,5,92.55111899995245,92.55111899995245,0.03325929993297905,93.97078319999855,[0.35462962962962963],[0.02962962962962963],[1],[0],[0],[1.4318115999922156],['target'],590460,001,2024-10-10_19h35.56.830,Task3_VisualSearch,2024.1.5,None,2024-10-10 19h36.09.023322 +0530,
53,0,53,0,94.01780349994078,,93.97839820000809,5,94.01780349994078,94.01780349994078,0.025326400063931942,95.13091339997482,[0.15092592592592594],[0.05277777777777778],[1],[0],[0],[1.128315499983728],['target'],590460,001,2024-10-10_19h35.56.830,Task3_VisualSearch,2024.1.5,None,2024-10-10 19h36.09.023322 +0530,
54,0,54,0,95.16250869992655,,95.13443939993158,5,95.16250869992655,95.16250869992655,0.017186000011861324,96.78128699993249,[0.053703703703703705],[-0.29907407407407405],[1],[0],[0],[1.6296934999991208],['target'],590460,001,2024-10-10_19h35.56.830,Task3_VisualSearch,2024.1.5,None,2024-10-10 19h36.09.023322 +0530,
55,0,55,0,96.85200770001393,,96.78909889992792,10,96.85200770001393,96.85200770001393,0.048979399958625436,98.5323606999591,[-0.08981481481481482],[-0.05462962962962963],[1],[0],[0],[1.6955362999578938],['target'],590460,001,2024-10-10_19h35.56.830,Task3_VisualSearch,2024.1.5,None,2024-10-10 19h36.09.023322 +0530,
56,0,56,0,98.62210449995473,,98.53595509997103,10,98.62210449995473,98.62210449995473,0.06507010001223534,99.86517969996203,[-0.22037037037037038],[0.275],[1],[0],[0],[1.2644155999878421],['target'],590460,001,2024-10-10_19h35.56.830,Task3_VisualSearch,2024.1.5,None,2024-10-10 19h36.09.023322 +0530,
57,0,57,0,99.89249629992992,,99.86844350001775,5,99.89249629992992,99.89249629992992,0.014200599980540574,101.06517369998619,[0.4185185185185185],[-0.046296296296296294],[1],[0],[0],[1.182486500008963],['target'],590460,001,2024-10-10_19h35.56.830,Task3_VisualSearch,2024.1.5,None,2024-10-10 19h36.09.023322 +0530,
58,0,58,0,101.1371810999699,,101.07255649997387,10,101.1371810999699,101.1371810999699,0.050015600048936903,102.32068320002872,[0.08981481481481482],[0.39351851851851855],[1],[0],[0],[1.1991607999661937],['target'],590460,001,2024-10-10_19h35.56.830,Task3_VisualSearch,2024.1.5,None,2024-10-10 19h36.09.023322 +0530,
59,0,59,0,102.41199229995254,,102.32813049992546,10,102.41199229995254,102.41199229995254,0.05707920005079359,104.25806929997634,[0.3296296296296296],[-0.36666666666666664],[1],[0],[0],[1.873784999945201],[],590460,001,2024-10-10_19h35.56.830,Task3_VisualSearch,2024.1.5,None,2024-10-10 19h36.09.023322 +0530,
60,0,60,0,104.35900659998879,,104.26554900000338,10,104.35900659998879,104.35900659998879,0.07678189990110695,106.13148490001913,[-0.4166666666666667],[0.41574074074074074],[1],[0],[0],[1.790282899979502],['target'],590460,001,2024-10-10_19h35.56.830,Task3_VisualSearch,2024.1.5,None,2024-10-10 19h36.09.023322 +0530,
61,0,61,0,106.17706929997075,,106.13655850000214,5,106.17706929997075,106.17706929997075,0.02955980005208403,108.61463939992245,[0.06388888888888888],[-0.45],[1],[0],[0],[2.448795000091195],['target'],590460,001,2024-10-10_19h35.56.830,Task3_VisualSearch,2024.1.5,None,2024-10-10 19h36.09.023322 +0530,
62,0,62,0,108.65059909992851,,108.62194570002612,5,108.65059909992851,108.65059909992851,0.019804400042630732,110.16769839997869,[0.17407407407407408],[-0.17037037037037037],[1],[0],[0],[1.5265865999972448],['target'],590460,001,2024-10-10_19h35.56.830,Task3_VisualSearch,2024.1.5,None,2024-10-10 19h36.09.023322 +0530,
63,0,63,0,110.23635080002714,,110.1757105999859,10,110.23635080002714,110.23635080002714,0.045666899997740984,112.95718389993999,[-0.011111111111111112],[-0.2490740740740741],[1],[0],[0],[2.736977700027637],['target'],590460,001,2024-10-10_19h35.56.830,Task3_VisualSearch,2024.1.5,None,2024-10-10 19h36.09.023322 +0530,
64,0,64,0,113.00494120002259,,112.96138490003068,10,113.00494120002259,113.00494120002259,0.029120299965143204,114.61435970000457,[-0.04537037037037037],[0.17777777777777778],[1],[0],[0],[1.6240094000240788],['target'],590460,001,2024-10-10_19h35.56.830,Task3_VisualSearch,2024.1.5,None,2024-10-10 19h36.09.023322 +0530,
65,0,65,0,114.66667690000031,,114.62213469995186,5,114.66667690000031,114.66667690000031,0.03276119998190552,116.09765359992161,[-0.08611111111111111],[0.04814814814814815],[1],[0],[0],[1.4436872999649495],['target'],590460,001,2024-10-10_19h35.56.830,Task3_VisualSearch,2024.1.5,None,2024-10-10 19h36.09.023322 +0530,
66,0,66,0,116.170274999924,,116.10537110001314,10,116.170274999924,116.170274999924,0.04899680009111762,117.44128339993767,[-0.12777777777777777],[0.1962962962962963],[1],[0],[0],[1.288040499901399],['target'],590460,001,2024-10-10_19h35.56.830,Task3_VisualSearch,2024.1.5,None,2024-10-10 19h36.09.023322 +0530,
67,0,67,0,117.48876580002252,,117.44718010001816,5,117.48876580002252,117.48876580002252,0.030860800063237548,119.04777840001043,[0.1824074074074074],[-0.22777777777777777],[1],[0],[0],[1.570170099963434],['target'],590460,001,2024-10-10_19h35.56.830,Task3_VisualSearch,2024.1.5,None,2024-10-10 19h36.09.023322 +0530,
68,0,68,0,119.10477540001739,,119.05559419991914,10,119.10477540001739,119.10477540001739,0.03426350001245737,120.46723790001124,[-0.3111111111111111],[-0.04814814814814815],[1],[0],[0],[1.3782380999764428],['target'],590460,001,2024-10-10_19h35.56.830,Task3_VisualSearch,2024.1.5,None,2024-10-10 19h36.09.023322 +0530,
69,0,69,0,120.55151689995546,,120.47531050001271,10,120.55151689995546,120.55151689995546,0.05324139993172139,121.91490969993174,[0.16296296296296298],[-0.23148148148148148],[1],[0],[0],[1.3876044999342412],['target'],590460,001,2024-10-10_19h35.56.830,Task3_VisualSearch,2024.1.5,None,2024-10-10 19h36.09.023322 +0530,
70,0,70,0,121.98431059997529,,121.91876469994895,10,121.98431059997529,121.98431059997529,0.03863329999148846,123.31789569999091,[0.27685185185185185],[-0.09259259259259259],[1],[0],[0],[1.3607531999005005],['target'],590460,001,2024-10-10_19h35.56.830,Task3_VisualSearch,2024.1.5,None,2024-10-10 19h36.09.023322 +0530,
71,0,71,0,123.36662929994054,,123.32221529993694,10,123.36662929994054,123.36662929994054,0.028233899967744946,125.14917510002851,[-0.024074074074074074],[-0.1037037037037037],[1],[0],[0],[1.7990991999395192],['target'],590460,001,2024-10-10_19h35.56.830,Task3_VisualSearch,2024.1.5,None,2024-10-10 19h36.09.023322 +0530,
72,0,72,0,125.21685620001517,,125.15464239998255,10,125.21685620001517,125.21685620001517,0.046715799951925874,126.38246789993718,[-0.19074074074074074],[0.012037037037037037],[1],[0],[0],[1.1816968000493944],['target'],590460,001,2024-10-10_19h35.56.830,Task3_VisualSearch,2024.1.5,None,2024-10-10 19h36.09.023322 +0530,
73,0,73,0,126.45442660001572,,126.3875102000311,10,126.45442660001572,126.45442660001572,0.029666900052689016,129.68422409996856,[-0.25],[-0.37037037037037035],[1],[0],[0],[3.267497699940577],['target'],590460,001,2024-10-10_19h35.56.830,Task3_VisualSearch,2024.1.5,None,2024-10-10 19h36.09.023322 +0530,
74,0,74,0,129.71664829994552,,129.69001010002103,5,129.71664829994552,129.71664829994552,0.017537500010803342,130.99694250000175,[0.07592592592592592],[-0.4046296296296296],[1],[0],[0],[1.2897911000763997],['target'],590460,001,2024-10-10_19h35.56.830,Task3_VisualSearch,2024.1.5,None,2024-10-10 19h36.09.023322 +0530,
75,0,75,0,131.0560497000115,,131.0048167000059,10,131.0560497000115,131.0560497000115,0.03618539997842163,132.05042590002995,[0.3814814814814815],[-0.37592592592592594],[1],[0],[0],[1.0105807000072673],['target'],590460,001,2024-10-10_19h35.56.830,Task3_VisualSearch,2024.1.5,None,2024-10-10 19h36.09.023322 +0530,
76,0,76,0,132.0779739000136,,132.05376109993085,5,132.0779739000136,132.0779739000136,0.014482699916698039,133.39724959991872,[0.35462962962962963],[0.10092592592592593],[1],[0],[0],[1.3288601000094786],['target'],590460,001,2024-10-10_19h35.56.830,Task3_VisualSearch,2024.1.5,None,2024-10-10 19h36.09.023322 +0530,
77,0,77,0,133.44264689995907,,133.40495160000864,5,133.44264689995907,133.44264689995907,0.02834129997063428,134.27941009995993,[0.32407407407407407],[-0.1037037037037037],[1],[0],[0],[0.84722180000972],['target'],590460,001,2024-10-10_19h35.56.830,Task3_VisualSearch,2024.1.5,None,2024-10-10 19h36.09.023322 +0530,
78,0,78,0,134.31851040001493,,134.28554870001972,5,134.31851040001493,134.31851040001493,0.02367729996331036,136.130059099989,[0.20185185185185187],[-0.45185185185185184],[1],[0],[0],[1.8213331999722868],['target'],590460,001,2024-10-10_19h35.56.830,Task3_VisualSearch,2024.1.5,None,2024-10-10 19h36.09.023322 +0530,
79,0,79,0,136.17870099993888,,136.13791709998623,5,136.17870099993888,136.17870099993888,0.03122920007444918,138.36493379995227,[0.3194444444444444],[0.3416666666666667],[1],[0],[0],[2.1967889999505132],['target'],590460,001,2024-10-10_19h35.56.830,Task3_VisualSearch,2024.1.5,None,2024-10-10 19h36.09.023322 +0530,
80,0,80,0,138.43544199992903,,138.37247549998574,10,138.43544199992903,138.43544199992903,0.03956370009109378,139.98265929997433,[0.1],[0.28425925925925927],[1],[0],[0],[1.5717586000682786],['target'],590460,001,2024-10-10_19h35.56.830,Task3_VisualSearch,2024.1.5,None,2024-10-10 19h36.09.023322 +0530,
81,0,81,0,140.03268579998985,,139.98784299998078,5,140.03268579998985,140.03268579998985,0.02978300000540912,141.8130409999285,[-0.10462962962962963],[0.4388888888888889],[1],[0],[0],[1.7958450000733137],['target'],590460,001,2024-10-10_19h35.56.830,Task3_VisualSearch,2024.1.5,None,2024-10-10 19h36.09.023322 +0530,
82,0,82,0,141.86668490001466,,141.8196569000138,10,141.86668490001466,141.86668490001466,0.032157700043171644,143.45657259994186,[0.17777777777777778],[-0.044444444444444446],[1],[0],[0],[1.605647600023076],['target'],590460,001,2024-10-10_19h35.56.830,Task3_VisualSearch,2024.1.5,None,2024-10-10 19h36.09.023322 +0530,
83,0,83,0,143.4872902999632,,143.46205620002002,5,143.4872902999632,143.4872902999632,0.01704880001489073,144.79609269998036,[0.412962962962963],[0.26481481481481484],[1],[0],[0],[1.3173382999375463],['target'],590460,001,2024-10-10_19h35.56.830,Task3_VisualSearch,2024.1.5,None,2024-10-10 19h36.09.023322 +0530,
84,0,84,0,144.84875360003207,,144.80395410000347,5,144.84875360003207,144.84875360003207,0.032668699976056814,146.87880229996517,[0.17037037037037037],[-0.23148148148148148],[1],[0],[0],[2.0432648001005873],['target'],590460,001,2024-10-10_19h35.56.830,Task3_VisualSearch,2024.1.5,None,2024-10-10 19h36.09.023322 +0530,
85,0,85,0,146.9122117999941,,146.88539349997882,5,146.9122117999941,146.9122117999941,0.017912500072270632,148.36258479999378,[0.41388888888888886],[0.27685185185185185],[1],[0],[0],[1.460200099973008],['target'],590460,001,2024-10-10_19h35.56.830,Task3_VisualSearch,2024.1.5,None,2024-10-10 19h36.09.023322 +0530,
86,0,86,0,148.4328498999821,,148.3703570999205,10,148.4328498999821,148.4328498999821,0.04745780001394451,149.97829859994818,[0.3037037037037037],[-0.1],[1],[0],[0],[1.5618124000029638],['target'],590460,001,2024-10-10_19h35.56.830,Task3_VisualSearch,2024.1.5,None,2024-10-10 19h36.09.023322 +0530,
87,0,87,0,150.00947439996526,,149.98243109998293,5,150.00947439996526,150.00947439996526,0.015878699952736497,151.95142970001325,[-0.38796296296296295],[0.10648148148148148],[1],[0],[0],[1.9533050999743864],['target'],590460,001,2024-10-10_19h35.56.830,Task3_VisualSearch,2024.1.5,None,2024-10-10 19h36.09.023322 +0530,
88,0,88,0,152.05112499999814,,151.9593334000092,10,152.05112499999814,152.05112499999814,0.06335449998732656,154.25337579997722,[0.42685185185185187],[-0.4027777777777778],[1],[0],[0],[2.2317701000720263],['target'],590460,001,2024-10-10_19h35.56.830,Task3_VisualSearch,2024.1.5,None,2024-10-10 19h36.09.023322 +0530,
89,0,89,0,154.34846100001596,,154.2611122999806,10,154.34846100001596,154.34846100001596,0.06108410004526377,156.18089580000378,[-0.044444444444444446],[-0.08703703703703704],[1],[0],[0],[1.8597271000035107],['target'],590460,001,2024-10-10_19h35.56.830,Task3_VisualSearch,2024.1.5,None,2024-10-10 19h36.09.023322 +0530,
90,0,90,0,156.2404641000321,,156.18851479992736,10,156.2404641000321,156.2404641000321,0.037947600008919835,158.05309289996512,[-0.37037037037037035],[0.3537037037037037],[1],[0],[0],[1.8278294000774622],['target'],590460,001,2024-10-10_19h35.56.830,Task3_VisualSearch,2024.1.5,None,2024-10-10 19h36.09.023322 +0530,
91,0,91,0,158.08458080003038,,158.05636839999352,5,158.08458080003038,158.08458080003038,0.018144400091841817,159.7985025999369,[0.45925925925925926],[0.1574074074074074],[1],[0],[0],[1.723866599961184],['target'],590460,001,2024-10-10_19h35.56.830,Task3_VisualSearch,2024.1.5,None,2024-10-10 19h36.09.023322 +0530,
92,0,92,0,159.84040460002143,,159.80589319998398,5,159.84040460002143,159.84040460002143,0.023047299939207733,161.51216899999417,[0.2712962962962963],[-0.05462962962962963],[1],[0],[0],[1.6842014000285417],['target'],590460,001,2024-10-10_19h35.56.830,Task3_VisualSearch,2024.1.5,None,2024-10-10 19h36.09.023322 +0530,
93,0,93,0,161.58296399994288,,161.51961930003017,10,161.58296399994288,161.58296399994288,0.04928120004478842,163.09617769997567,[0.41759259259259257],[-0.3851851851851852],[1],[0],[0],[1.5280267000198364],['target'],590460,001,2024-10-10_19h35.56.830,Task3_VisualSearch,2024.1.5,None,2024-10-10 19h36.09.023322 +0530,
94,0,94,0,163.1681602000026,,163.10342109994963,10,163.1681602000026,163.1681602000026,0.04944890004117042,165.61235279997345,[0.11481481481481481],[0.04351851851851852],[1],[0],[0],[2.4605035999557003],['target'],590460,001,2024-10-10_19h35.56.830,Task3_VisualSearch,2024.1.5,None,2024-10-10 19h36.09.023322 +0530,
95,0,95,0,165.64094569999725,,165.61693349992856,5,165.64094569999725,165.64094569999725,0.015883899992331862,167.9612026999239,[-0.2759259259259259],[-0.4111111111111111],[1],[0],[0],[2.3289043001132086],['target'],590460,001,2024-10-10_19h35.56.830,Task3_VisualSearch,2024.1.5,None,2024-10-10 19h36.09.023322 +0530,
96,0,96,0,167.99637509998865,,167.9680354000302,5,167.99637509998865,167.99637509998865,0.019079599995166063,170.02818889997434,[0.4287037037037037],[0.20462962962962963],[1],[0],[0],[2.041937500005588],['target'],590460,001,2024-10-10_19h35.56.830,Task3_VisualSearch,2024.1.5,None,2024-10-10 19h36.09.023322 +0530,
97,0,97,0,170.06345369992778,,170.03533819993027,5,170.06345369992778,170.06345369992778,0.019081699894741178,171.94556130003184,[-0.3333333333333333],[-0.4305555555555556],[1],[0],[0],[1.8919095000019297],['target'],590460,001,2024-10-10_19h35.56.830,Task3_VisualSearch,2024.1.5,None,2024-10-10 19h36.09.023322 +0530,
98,0,98,0,172.02839140000287,,171.9531916999258,10,172.02839140000287,172.02839140000287,0.04820409999229014,173.32154989999253,[-0.2953703703703704],[-0.16111111111111112],[1],[0],[0],[1.3209118999075145],['target'],590460,001,2024-10-10_19h35.56.830,Task3_VisualSearch,2024.1.5,None,2024-10-10 19h36.09.023322 +0530,
99,0,99,0,173.36659280001186,,173.32926060003228,5,173.36659280001186,173.36659280001186,0.02765429997816682,174.9611102999188,[-0.3416666666666667],[0.34444444444444444],[1],[0],[0],[1.6051367999752983],['target'],590460,001,2024-10-10_19h35.56.830,Task3_VisualSearch,2024.1.5,None,2024-10-10 19h36.09.023322 +0530,
100,0,100,0,175.012490299996,,174.96715839998797,10,175.012490299996,175.012490299996,0.030989200109615922,177.93532429996412,[0.4685185185185185],[0.24444444444444444],[1],[0],[0],[2.9377064000582322],['target'],590460,001,2024-10-10_19h35.56.830,Task3_VisualSearch,2024.1.5,None,2024-10-10 19h36.09.023322 +0530,
101,0,101,0,177.9840347999707,,177.9406794999959,10,177.9840347999707,177.9840347999707,0.0286183999851346,180.71137929998804,[-0.03981481481481482],[-0.29814814814814816],[1],[0],[0],[2.74262799997814],[],590460,001,2024-10-10_19h35.56.830,Task3_VisualSearch,2024.1.5,None,2024-10-10 19h36.09.023322 +0530,
102,0,102,0,180.76254729996435,,180.71699749992695,10,180.76254729996435,180.76254729996435,0.03001430002041161,183.15219669998623,[0.42592592592592593],[-0.07407407407407407],[1],[0],[0],[2.4056631000712514],['target'],590460,001,2024-10-10_19h35.56.830,Task3_VisualSearch,2024.1.5,None,2024-10-10 19h36.09.023322 +0530,
103,0,103,0,183.22407160000876,,183.15989989996888,5,183.22407160000876,183.22407160000876,0.05191809998359531,188.12702419993002,[0.5166666666666667],[0.08425925925925926],[1],[0],[0],[4.916376199922524],['target'],590460,001,2024-10-10_19h35.56.830,Task3_VisualSearch,2024.1.5,None,2024-10-10 19h36.09.023322 +0530,
104,0,104,0,188.18064779997803,,188.13382729992736,10,188.18064779997803,188.18064779997803,0.03174220002256334,192.01360389997717,[-0.017592592592592594],[0.49907407407407406],[1],[0],[0],[3.8490083999931812],['target'],590460,001,2024-10-10_19h35.56.830,Task3_VisualSearch,2024.1.5,None,2024-10-10 19h36.09.023322 +0530,
105,0,105,0,192.0607103999937,,192.0186044999864,5,192.0607103999937,192.0607103999937,0.031346799922175705,193.09430939995218,[-0.24166666666666667],[0.2101851851851852],[1],[0],[0],[1.044688199996017],['target'],590460,001,2024-10-10_19h35.56.830,Task3_VisualSearch,2024.1.5,None,2024-10-10 19h36.09.023322 +0530,
106,0,106,0,193.15174559992738,,193.1021867999807,10,193.15174559992738,193.15174559992738,0.03562380000948906,195.10976010002196,[0.032407407407407406],[-0.4064814814814815],[1],[0],[0],[1.9730744999833405],['target'],590460,001,2024-10-10_19h35.56.830,Task3_VisualSearch,2024.1.5,None,2024-10-10 19h36.09.023322 +0530,
107,0,107,0,195.13875789998565,,195.11415429995395,5,195.13875789998565,195.13875789998565,0.01510640000924468,196.97722799994517,[0.4444444444444444],[0.06574074074074074],[1],[0],[0],[1.8481039000907913],['target'],590460,001,2024-10-10_19h35.56.830,Task3_VisualSearch,2024.1.5,None,2024-10-10 19h36.09.023322 +0530,
108,0,108,0,197.03648369992152,,196.98530759999994,5,197.03648369992152,197.03648369992152,0.035088000004179776,198.4937507000286,[-0.19722222222222222],[-0.09722222222222222],[1],[0],[0],[1.4744668001076207],['target'],590460,001,2024-10-10_19h35.56.830,Task3_VisualSearch,2024.1.5,None,2024-10-10 19h36.09.023322 +0530,
109,0,109,0,198.5382395000197,,198.5015385999577,5,198.5382395000197,198.5382395000197,0.02751949999947101,199.4097585999407,[0.1814814814814815],[0.10555555555555556],[1],[0],[0],[0.8817046999465674],[],590460,001,2024-10-10_19h35.56.830,Task3_VisualSearch,2024.1.5,None,2024-10-10 19h36.09.023322 +0530,
110,0,110,0,199.5222845999524,,199.41758589993697,10,199.5222845999524,199.5222845999524,0.07728540000971407,202.04361649998464,[0.31574074074074077],[-0.3648148148148148],[1],[0],[0],[2.549662599922158],[],590460,001,2024-10-10_19h35.56.830,Task3_VisualSearch,2024.1.5,None,2024-10-10 19h36.09.023322 +0530,
111,0,111,0,202.10550439998042,,202.05164059996605,5,202.10550439998042,202.10550439998042,0.03582810005173087,203.8604364999337,[0.07314814814814814],[-0.18611111111111112],[1],[0],[0],[1.7737821000628173],['target'],590460,001,2024-10-10_19h35.56.830,Task3_VisualSearch,2024.1.5,None,2024-10-10 19h36.09.023322 +0530,
112,0,112,0,203.9579138000263,,203.86817899998277,10,203.9579138000263,203.9579138000263,0.06245840003248304,205.68430349999107,[0.08888888888888889],[0.08796296296296297],[1],[0],[0],[1.7545220999745652],['target'],590460,001,2024-10-10_19h35.56.830,Task3_VisualSearch,2024.1.5,None,2024-10-10 19h36.09.023322 +0530,
113,0,113,0,205.74635569995735,,205.69172959995922,10,205.74635569995735,205.74635569995735,0.040050300071015954,207.89486449991819,[-0.09907407407407408],[0.47962962962962963],[1],[0],[0],[2.1642312000039965],['target'],590460,001,2024-10-10_19h35.56.830,Task3_VisualSearch,2024.1.5,None,2024-10-10 19h36.09.023322 +0530,
114,0,114,0,207.95919570000842,,207.90169610001612,10,207.95919570000842,207.95919570000842,0.04317280009854585,210.03156699996907,[0.1814814814814815],[0.032407407407407406],[1],[0],[0],[2.0876165999798104],['target'],590460,001,2024-10-10_19h35.56.830,Task3_VisualSearch,2024.1.5,None,2024-10-10 19h36.09.023322 +0530,
115,0,115,0,210.12436629994772,,210.03882869996596,10,210.12436629994772,210.12436629994772,0.05967720004264265,212.6309534999309,[-0.47314814814814815],[0.2462962962962963],[1],[0],[0],[2.53342310001608],['target'],590460,001,2024-10-10_19h35.56.830,Task3_VisualSearch,2024.1.5,None,2024-10-10 19h36.09.023322 +0530,
116,0,116,0,212.67797139997128,,212.6371442999225,5,212.67797139997128,212.67797139997128,0.030152900028042495,214.59299309994094,[-0.2574074074074074],[0.36944444444444446],[1],[0],[0],[1.9263847001129761],['target'],590460,001,2024-10-10_19h35.56.830,Task3_VisualSearch,2024.1.5,None,2024-10-10 19h36.09.023322 +0530,
117,0,117,0,214.6423401000211,,214.60094629996456,5,214.6423401000211,214.6423401000211,0.031443199957720935,216.44472919998225,[0.4601851851851852],[0.45740740740740743],[1],[0],[0],[1.8133744999067858],['target'],590460,001,2024-10-10_19h35.56.830,Task3_VisualSearch,2024.1.5,None,2024-10-10 19h36.09.023322 +0530,
118,0,118,0,216.5076551999664,,216.4526144999545,10,216.5076551999664,216.5076551999664,0.04063279996626079,219.86358100001235,[-0.4740740740740741],[0.22592592592592592],[1],[0],[0],[3.371429100050591],['target'],590460,001,2024-10-10_19h35.56.830,Task3_VisualSearch,2024.1.5,None,2024-10-10 19h36.09.023322 +0530,
119,0,119,0,219.89589169993997,,219.86947379994672,5,219.89589169993997,219.89589169993997,0.016495499992743134,221.89216369995847,[0.3037037037037037],[-0.4101851851851852],[1],[0],[0],[2.006748699932359],['target'],590460,001,2024-10-10_19h35.56.830,Task3_VisualSearch,2024.1.5,None,2024-10-10 19h36.09.023322 +0530,
120,0,120,0,221.94619659997988,,221.89933909999672,10,221.94619659997988,221.94619659997988,0.03131850005593151,223.96220429998357,[-0.29814814814814816],[-0.4009259259259259],[1],[0],[0],[2.032341899932362],['target'],590460,001,2024-10-10_19h35.56.830,Task3_VisualSearch,2024.1.5,None,2024-10-10 19h36.09.023322 +0530,
121,0,121,0,223.99242429994047,,223.96744219993707,5,223.99242429994047,223.99242429994047,0.016593700041994452,225.64197949995287,[0.20462962962962963],[0.44074074074074077],[1],[0],[0],[1.658248999970965],['target'],590460,001,2024-10-10_19h35.56.830,Task3_VisualSearch,2024.1.5,None,2024-10-10 19h36.09.023322 +0530,
122,0,122,0,225.69726419996005,,225.64894799992908,5,225.69726419996005,225.69726419996005,0.033398799947462976,227.42669450002722,[-0.08796296296296297],[0.07314814814814814],[1],[0],[0],[1.7453322999645025],['target'],590460,001,2024-10-10_19h35.56.830,Task3_VisualSearch,2024.1.5,None,2024-10-10 19h36.09.023322 +0530,
123,0,123,0,227.46952339995187,,227.43445069994777,5,227.46952339995187,227.46952339995187,0.02649140008725226,228.67570639995392,[-0.08425925925925926],[-0.4824074074074074],[1],[0],[0],[1.2157303999410942],['target'],590460,001,2024-10-10_19h35.56.830,Task3_VisualSearch,2024.1.5,None,2024-10-10 19h36.09.023322 +0530,
124,0,124,0,228.71665800001938,,228.68365459993947,5,228.71665800001938,228.71665800001938,0.022931099985726178,230.12502989999484,[-0.44166666666666665],[0.35833333333333334],[1],[0],[0],[1.419683999964036],['target'],590460,001,2024-10-10_19h35.56.830,Task3_VisualSearch,2024.1.5,None,2024-10-10 19h36.09.023322 +0530,
125,0,125,0,230.15996770001948,,230.13214050000533,5,230.15996770001948,230.15996770001948,0.01849660009611398,231.67499359999783,[-0.006481481481481481],[-0.13333333333333333],[1],[0],[0],[1.525023699970916],['target'],590460,001,2024-10-10_19h35.56.830,Task3_VisualSearch,2024.1.5,None,2024-10-10 19h36.09.023322 +0530,
126,0,126,0,231.7108691999456,,231.68192200001795,5,231.7108691999456,231.7108691999456,0.01905180001631379,233.02589089993853,[-0.18518518518518517],[0.2175925925925926],[1],[0],[0],[1.325500400038436],['target'],590460,001,2024-10-10_19h35.56.830,Task3_VisualSearch,2024.1.5,None,2024-10-10 19h36.09.023322 +0530,
127,0,127,0,233.0906466000015,,233.03364409995265,10,233.0906466000015,233.0906466000015,0.04291059996467084,235.47104989993386,[0.42777777777777776],[0.4685185185185185],[1],[0],[0],[2.3954391999868676],['target'],590460,001,2024-10-10_19h35.56.830,Task3_VisualSearch,2024.1.5,None,2024-10-10 19h36.09.023322 +0530,
128,0,128,0,235.53554840001743,,235.47906119993422,10,235.53554840001743,235.53554840001743,0.041029600077308714,236.484780699946,[-0.16574074074074074],[0.4527777777777778],[1],[0],[0],[0.9657530001131818],['target'],590460,001,2024-10-10_19h35.56.830,Task3_VisualSearch,2024.1.5,None,2024-10-10 19h36.09.023322 +0530,
129,0,129,0,236.54915809992235,,236.49181819998194,10,236.54915809992235,236.54915809992235,0.04228330007754266,240.4496771999402,[-0.4861111111111111],[-0.46111111111111114],[1],[0],[0],[3.9163594000274315],['target'],590460,001,2024-10-10_19h35.56.830,Task3_VisualSearch,2024.1.5,None,2024-10-10 19h36.09.023322 +0530,
130,0,130,0,240.48496119992342,,240.45658529992215,5,240.48496119992342,240.48496119992342,0.019050200004130602,241.97491609991994,[-0.3527777777777778],[-0.14537037037037037],[1],[0],[0],[1.500002000015229],['target'],590460,001,2024-10-10_19h35.56.830,Task3_VisualSearch,2024.1.5,None,2024-10-10 19h36.09.023322 +0530,
131,0,131,0,242.03626630001236,,241.98234789993148,5,242.03626630001236,242.03626630001236,0.01911400002427399,243.32501159992535,[-0.05],[0.09907407407407408],[1],[0],[0],[1.324142099940218],['target'],590460,001,2024-10-10_19h35.56.830,Task3_VisualSearch,2024.1.5,None,2024-10-10 19h36.09.023322 +0530,
132,0,132,0,243.3616378000006,,243.33245829993393,5,243.3616378000006,243.3616378000006,0.019882100052200258,244.8910898999311,[0.13148148148148148],[0.40925925925925927],[1],[0],[0],[1.5397849000291899],['target'],590460,001,2024-10-10_19h35.56.830,Task3_VisualSearch,2024.1.5,None,2024-10-10 19h36.09.023322 +0530,
133,0,133,0,244.93916039995383,,244.89501849992666,10,244.93916039995383,244.93916039995383,0.026149499928578734,246.4094237999525,[-0.4759259259259259],[-0.06759259259259259],[1],[0],[0],[1.488175000064075],['target'],590460,001,2024-10-10_19h35.56.830,Task3_VisualSearch,2024.1.5,None,2024-10-10 19h36.09.023322 +0530,
134,0,134,0,246.46581899991725,,246.4168367999373,10,246.46581899991725,246.46581899991725,0.03417020000051707,248.93383350002114,[-0.14444444444444443],[-0.023148148148148147],[1],[0],[0],[2.4838829000946134],[],590460,001,2024-10-10_19h35.56.830,Task3_VisualSearch,2024.1.5,None,2024-10-10 19h36.09.023322 +0530,
135,0,135,0,249.02498530002777,,248.94077330001164,10,249.02498530002777,249.02498530002777,0.05731619999278337,250.2339741999749,[-0.09166666666666666],[0.09351851851851851],[1],[0],[0],[1.236769099952653],['target'],590460,001,2024-10-10_19h35.56.830,Task3_VisualSearch,2024.1.5,None,2024-10-10 19h36.09.023322 +0530,
136,0,136,0,250.316090599983,,250.24206449999474,10,250.316090599983,250.316090599983,0.04981120000593364,252.5699630000163,[-0.1361111111111111],[0.19907407407407407],[1],[0],[0],[2.279247500002384],['target'],590460,001,2024-10-10_19h35.56.830,Task3_VisualSearch,2024.1.5,None,2024-10-10 19h36.09.023322 +0530,
137,0,137,0,252.66309739998542,,252.57780590001494,10,252.66309739998542,252.66309739998542,0.06129990005865693,254.03369509999175,[0.4],[0.4888888888888889],[1],[0],[0],[1.3957550999475643],['target'],590460,001,2024-10-10_19h35.56.830,Task3_VisualSearch,2024.1.5,None,2024-10-10 19h36.09.023322 +0530,
138,0,138,0,254.0802528000204,,254.03710129996762,10,254.0802528000204,254.0802528000204,0.02690439997240901,255.29397100000642,[0.09444444444444444],[0.25462962962962965],[1],[0],[0],[1.2298650000011548],['target'],590460,001,2024-10-10_19h35.56.830,Task3_VisualSearch,2024.1.5,None,2024-10-10 19h36.09.023322 +0530,
139,0,139,0,255.35559509997256,,255.30168879998382,10,255.35559509997256,255.35559509997256,0.03863610001280904,258.5068813000107,[-0.2657407407407407],[-0.44351851851851853],[1],[0],[0],[3.167377599980682],['target'],590460,001,2024-10-10_19h35.56.830,Task3_VisualSearch,2024.1.5,None,2024-10-10 19h36.09.023322 +0530,
140,0,140,0,258.5680904999608,,258.5162670999998,10,258.5680904999608,258.5680904999608,0.03451450006105006,260.72273269994184,[0.08333333333333333],[0.1962962962962963],[1],[0],[0],[2.172679999959655],['target'],590460,001,2024-10-10_19h35.56.830,Task3_VisualSearch,2024.1.5,None,2024-10-10 19h36.09.023322 +0530,
141,0,141,0,260.7799868999282,,260.73020029999316,10,260.7799868999282,260.7799868999282,0.03620279999449849,262.34955669997726,[-0.3675925925925926],[-0.36203703703703705],[1],[0],[0],[1.5839408999308944],['target'],590460,001,2024-10-10_19h35.56.830,Task3_VisualSearch,2024.1.5,None,2024-10-10 19h36.09.023322 +0530,
142,0,142,0,262.3935341000324,,262.35712890001014,5,262.3935341000324,262.3935341000324,0.027130099944770336,264.02374059997965,[-0.07592592592592592],[-0.29444444444444445],[1],[0],[0],[1.6403684999095276],[],590460,001,2024-10-10_19h35.56.830,Task3_VisualSearch,2024.1.5,None,2024-10-10 19h36.09.023322 +0530,
143,0,143,0,264.1288352999836,,264.0311239999719,10,264.1288352999836,264.1288352999836,0.07089900004211813,265.70512840000447,[0.3972222222222222],[-0.09074074074074075],[1],[0],[0],[1.6040943000698462],['target'],590460,001,2024-10-10_19h35.56.830,Task3_VisualSearch,2024.1.5,None,2024-10-10 19h36.09.023322 +0530,
144,0,144,0,265.74342610000167,,265.7124740999425,5,265.74342610000167,265.74342610000167,0.023075200035236776,266.97354199993424,[-0.25],[-0.19722222222222222],[1],[0],[0],[1.2388574000215158],['target'],590460,001,2024-10-10_19h35.56.830,Task3_VisualSearch,2024.1.5,None,2024-10-10 19h36.09.023322 +0530,
145,0,145,0,267.0302453999175,,266.9812968999613,5,267.0302453999175,267.0302453999175,0.03376630006823689,268.1901598999975,[0.07037037037037037],[-0.06851851851851852],[1],[0],[0],[1.1760499000083655],['target'],590460,001,2024-10-10_19h35.56.830,Task3_VisualSearch,2024.1.5,None,2024-10-10 19h36.09.023322 +0530,
146,0,146,0,268.24492520000786,,268.1972045999719,10,268.24492520000786,268.24492520000786,0.03137740003876388,269.96592899993993,[0.05185185185185185],[0.07314814814814814],[1],[0],[0],[1.7378075000597164],['target'],590460,001,2024-10-10_19h35.56.830,Task3_VisualSearch,2024.1.5,None,2024-10-10 19h36.09.023322 +0530,
147,0,147,0,270.0223745999392,,269.97365790000185,5,270.0223745999392,270.0223745999392,0.03227100009098649,270.8570495999884,[-0.11574074074074074],[0.2175925925925926],[1],[0],[0],[0.8519658000441268],['target'],590460,001,2024-10-10_19h35.56.830,Task3_VisualSearch,2024.1.5,None,2024-10-10 19h36.09.023322 +0530,
148,0,148,0,270.9402789999731,,270.86480759992264,10,270.9402789999731,270.9402789999731,0.05042960005812347,272.21130500000436,[-0.43148148148148147],[0.3685185185185185],[1],[0],[0],[1.2973135999636725],['target'],590460,001,2024-10-10_19h35.56.830,Task3_VisualSearch,2024.1.5,None,2024-10-10 19h36.09.023322 +0530,
149,0,149,0,272.2403499999782,,272.2159885999281,5,272.2403499999782,272.2403499999782,0.015444799908436835,273.25688529992476,[-0.02962962962962963],[0.23333333333333334],[1],[0],[0],[1.0257442999863997],['target'],590460,001,2024-10-10_19h35.56.830,Task3_VisualSearch,2024.1.5,None,2024-10-10 19h36.09.023322 +0530,
150,0,150,0,273.29235360003076,,273.2642285999609,5,273.29235360003076,273.29235360003076,0.019216099986806512,274.6900555000175,[-0.002777777777777778],[-0.19444444444444445],[1],[0],[0],[1.4073501999955624],['target'],590460,001,2024-10-10_19h35.56.830,Task3_VisualSearch,2024.1.5,None,2024-10-10 19h36.09.023322 +0530,
151,0,151,0,274.7353724000277,,274.6976932999678,5,274.7353724000277,274.7353724000277,0.029223299934528768,276.3064108999679,[0.3712962962962963],[-0.43333333333333335],[1],[0],[0],[1.580432299990207],['target'],590460,001,2024-10-10_19h35.56.830,Task3_VisualSearch,2024.1.5,None,2024-10-10 19h36.09.023322 +0530,
152,0,152,0,276.3462316999212,,276.3144626999274,5,276.3462316999212,276.3462316999212,0.02263729996047914,277.5231930000009,[0.18425925925925926],[-0.13055555555555556],[1],[0],[0],[1.1870808000676334],['target'],590460,001,2024-10-10_19h35.56.830,Task3_VisualSearch,2024.1.5,None,2024-10-10 19h36.09.023322 +0530,
153,0,153,0,277.6236546,,277.53100720001385,10,277.6236546,277.6236546,0.06426570005714893,279.3328041000059,[0.03796296296296296],[0.41203703703703703],[1],[0],[0],[1.7386100000003353],['target'],590460,001,2024-10-10_19h35.56.830,Task3_VisualSearch,2024.1.5,None,2024-10-10 19h36.09.023322 +0530,
154,0,154,0,279.3821167999413,,279.3405533999903,5,279.3821167999413,279.3821167999413,0.029312800033949316,281.18989379995037,[0.053703703703703705],[-0.0787037037037037],[1],[0],[0],[1.820873000076972],['target'],590460,001,2024-10-10_19h35.56.830,Task3_VisualSearch,2024.1.5,None,2024-10-10 19h36.09.023322 +0530,
155,0,155,0,281.2384664999554,,281.1975477000233,5,281.2384664999554,281.2384664999554,0.030035800067707896,282.63984249997884,[-0.009259259259259259],[0.4111111111111111],[1],[0],[0],[1.4131528999423608],['target'],590460,001,2024-10-10_19h35.56.830,Task3_VisualSearch,2024.1.5,None,2024-10-10 19h36.09.023322 +0530,
156,0,156,0,282.6812772999983,,282.64773860003334,5,282.6812772999983,282.6812772999983,0.024365700082853436,283.9396460999269,[0.007407407407407408],[-0.21666666666666667],[1],[0],[0],[1.2683147999923676],['target'],590460,001,2024-10-10_19h35.56.830,Task3_VisualSearch,2024.1.5,None,2024-10-10 19h36.09.023322 +0530,
157,0,157,0,283.9982569999993,,283.94763489998877,10,283.9982569999993,283.9982569999993,0.03548149997368455,285.61426089995075,[0.48518518518518516],[0.07407407407407407],[1],[0],[0],[1.6322487000143155],['target'],590460,001,2024-10-10_19h35.56.830,Task3_VisualSearch,2024.1.5,None,2024-10-10 19h36.09.023322 +0530,
158,0,158,0,285.68861259997357,,285.6215674999403,10,285.68861259997357,285.68861259997357,0.04417110001668334,289.79437479993794,[-0.43333333333333335],[-0.3972222222222222],[1],[0],[0],[4.129616999998689],['target'],590460,001,2024-10-10_19h35.56.830,Task3_VisualSearch,2024.1.5,None,2024-10-10 19h36.09.023322 +0530,
159,0,159,0,289.837207900011,,289.8021097999299,5,289.837207900011,289.837207900011,0.02637109998613596,291.5060428000288,[-0.03333333333333333],[-0.03148148148148148],[1],[0],[0],[1.6784991000313312],['target'],590460,001,2024-10-10_19h35.56.830,Task3_VisualSearch,2024.1.5,None,2024-10-10 19h36.09.023322 +0530,
160,0,160,0,291.5753511999501,,291.513671600027,10,291.5753511999501,291.5753511999501,0.04618259996641427,293.1152426999761,[-0.5055555555555555],[0.11944444444444445],[1],[0],[0],[1.5563580999150872],['target'],590460,001,2024-10-10_19h35.56.830,Task3_VisualSearch,2024.1.5,None,2024-10-10 19h36.09.023322 +0530,
161,0,161,0,293.1595324999653,,293.12146389996633,5,293.1595324999653,293.1595324999653,0.029034600011073053,294.7392888999311,[-0.4083333333333333],[-0.06388888888888888],[1],[0],[0],[1.589401000062935],['target'],590460,001,2024-10-10_19h35.56.830,Task3_VisualSearch,2024.1.5,None,2024-10-10 19h36.09.023322 +0530,
162,0,162,0,294.77932049997617,,294.74720869993325,5,294.77932049997617,294.77932049997617,0.023529700003564358,296.1729571999749,[0.4305555555555556],[-0.1361111111111111],[1],[0],[0],[1.403359799995087],['target'],590460,001,2024-10-10_19h35.56.830,Task3_VisualSearch,2024.1.5,None,2024-10-10 19h36.09.023322 +0530,
163,0,163,0,296.2246038999874,,296.18078309996054,5,296.2246038999874,296.2246038999874,0.028641700046136975,297.9219089000253,[0.13796296296296295],[-0.3851851851851852],[1],[0],[0],[1.7135016999673098],['target'],590460,001,2024-10-10_19h35.56.830,Task3_VisualSearch,2024.1.5,None,2024-10-10 19h36.09.023322 +0530,
164,0,164,0,297.9583969999803,,297.929463999928,5,297.9583969999803,297.9583969999803,0.01978390000294894,300.9550927999662,[-0.3435185185185185],[0.3851851851851852],[1],[0],[0],[3.0065662999404594],['target'],590460,001,2024-10-10_19h35.56.830,Task3_VisualSearch,2024.1.5,None,2024-10-10 19h36.09.023322 +0530,
165,0,165,0,301.03115179995075,,300.9625030999305,10,301.03115179995075,301.03115179995075,0.052876600064337254,302.3961575999856,[0.09351851851851851],[0.3101851851851852],[1],[0],[0],[1.3815242999698967],['target'],590460,001,2024-10-10_19h35.56.830,Task3_VisualSearch,2024.1.5,None,2024-10-10 19h36.09.023322 +0530,
166,0,166,0,302.49125750001986,,302.40350969997235,10,302.49125750001986,302.49125750001986,0.06117969995830208,305.71296419994906,[0.2638888888888889],[0.4824074074074074],[1],[0],[0],[3.2492642999859527],['target'],590460,001,2024-10-10_19h35.56.830,Task3_VisualSearch,2024.1.5,None,2024-10-10 19h36.09.023322 +0530,
167,0,167,0,305.7434256999986,,305.7183887999272,5,305.7434256999986,305.7434256999986,0.015895099961198866,306.85571619996335,[0.35648148148148145],[0.1648148148148148],[1],[0],[0],[1.1217887999955565],['target'],590460,001,2024-10-10_19h35.56.830,Task3_VisualSearch,2024.1.5,None,2024-10-10 19h36.09.023322 +0530,
168,0,168,0,306.9104871000163,,306.8634117000038,5,306.9104871000163,306.9104871000163,0.031385299982503057,308.67182829999365,[-0.3509259259259259],[-0.33425925925925926],[1],[0],[0],[1.7780259000137448],['target'],590460,001,2024-10-10_19h35.56.830,Task3_VisualSearch,2024.1.5,None,2024-10-10 19h36.09.023322 +0530,
169,0,169,0,308.72265709994826,,308.6797506000148,5,308.72265709994826,308.72265709994826,0.03250939992722124,311.4072097999742,[-0.12222222222222222],[0.3037037037037037],[1],[0],[0],[2.6958850000519305],['target'],590460,001,2024-10-10_19h35.56.830,Task3_VisualSearch,2024.1.5,None,2024-10-10 19h36.09.023322 +0530,
170,0,170,0,311.46875739993993,,311.4150059999665,10,311.46875739993993,311.46875739993993,0.038236299995332956,312.9135306000244,[-0.4898148148148148],[0.3907407407407407],[1],[0],[0],[1.4614844999741763],['target'],590460,001,2024-10-10_19h35.56.830,Task3_VisualSearch,2024.1.5,None,2024-10-10 19h36.09.023322 +0530,
171,0,171,0,312.957227799925,,312.91668999998365,10,312.957227799925,312.957227799925,0.02608219999819994,315.45970969996415,[-0.13425925925925927],[0.22777777777777777],[1],[0],[0],[2.5169097000034526],['target'],590460,001,2024-10-10_19h35.56.830,Task3_VisualSearch,2024.1.5,None,2024-10-10 19h36.09.023322 +0530,
172,0,172,0,315.52260809997097,,315.46723029995337,10,315.52260809997097,315.52260809997097,0.04029080003965646,317.6219400999835,[-0.25833333333333336],[0.27037037037037037],[1],[0],[0],[2.115587600041181],['target'],590460,001,2024-10-10_19h35.56.830,Task3_VisualSearch,2024.1.5,None,2024-10-10 19h36.09.023322 +0530,
173,0,173,0,317.66620849992614,,317.62516880000476,10,317.66620849992614,317.66620849992614,0.025724500068463385,319.64237150002737,[-0.32407407407407407],[0.43796296296296294],[1],[0],[0],[1.9914256000192836],['target'],590460,001,2024-10-10_19h35.56.830,Task3_VisualSearch,2024.1.5,None,2024-10-10 19h36.09.023322 +0530,
174,0,174,0,319.691432200023,,319.646854099934,10,319.691432200023,319.691432200023,0.028715500026009977,321.9310517000267,[0.18888888888888888],[-0.23333333333333334],[1],[0],[0],[2.255995500017889],['target'],590460,001,2024-10-10_19h35.56.830,Task3_VisualSearch,2024.1.5,None,2024-10-10 19h36.09.023322 +0530,
175,0,175,0,321.961482899962,,321.93594049999956,5,321.961482899962,321.961482899962,0.016266199992969632,323.15469519991893,[-0.24351851851851852],[-0.007407407407407408],[1],[0],[0],[1.202744000009261],['target'],590460,001,2024-10-10_19h35.56.830,Task3_VisualSearch,2024.1.5,None,2024-10-10 19h36.09.023322 +0530,
176,0,176,0,323.1966808999423,,323.1624758000253,5,323.1966808999423,323.1966808999423,0.025149699999019504,324.17064819997177,[0.12222222222222222],[-0.03148148148148148],[1],[0],[0],[0.9839862000662833],[],590460,001,2024-10-10_19h35.56.830,Task3_VisualSearch,2024.1.5,None,2024-10-10 19h36.09.023322 +0530,
177,0,177,0,324.2368618999608,,324.18072689999826,5,324.2368618999608,324.2368618999608,0.04155000008177012,325.1712681999197,[-0.26666666666666666],[0.18055555555555555],[1],[0],[0],[0.9502778999740258],['target'],590460,001,2024-10-10_19h35.56.830,Task3_VisualSearch,2024.1.5,None,2024-10-10 19h36.09.023322 +0530,
178,0,178,0,325.23499239992816,,325.17906819994096,10,325.23499239992816,325.23499239992816,0.0408566000405699,326.2769031999633,[0.4685185185185185],[0.017592592592592594],[1],[0],[0],[1.05791400000453],['target'],590460,001,2024-10-10_19h35.56.830,Task3_VisualSearch,2024.1.5,None,2024-10-10 19h36.09.023322 +0530,
179,0,179,0,326.3258362999186,,326.28445629996713,5,326.3258362999186,326.3258362999186,0.030585499946027994,328.1039393999381,[-0.28888888888888886],[-0.4305555555555556],[1],[0],[0],[1.7898761000251397],['target'],590460,001,2024-10-10_19h35.56.830,Task3_VisualSearch,2024.1.5,None,2024-10-10 19h36.09.023322 +0530,
180,0,180,0,328.16549279994797,,328.11181899998337,10,328.16549279994797,328.16549279994797,0.03872209996916354,329.1753339000279,[0.08333333333333333],[0.287962962962963],[1],[0],[0],[1.0258705000160262],['target'],590460,001,2024-10-10_19h35.56.830,Task3_VisualSearch,2024.1.5,None,2024-10-10 19h36.09.023322 +0530,
181,0,181,0,329.2180920999963,,329.18289009993896,5,329.2180920999963,329.2180920999963,0.025684499996714294,330.40980139991734,[0.09259259259259259],[-0.11203703703703703],[1],[0],[0],[1.202122199931182],['target'],590460,001,2024-10-10_19h35.56.830,Task3_VisualSearch,2024.1.5,None,2024-10-10 19h36.09.023322 +0530,
182,0,182,0,330.46365659998264,,330.4175992999226,5,330.46365659998264,330.46365659998264,0.03161579999141395,331.5206890000263,[0.25462962962962965],[-0.21944444444444444],[1],[0],[0],[1.0724927000701427],['target'],590460,001,2024-10-10_19h35.56.830,Task3_VisualSearch,2024.1.5,None,2024-10-10 19h36.09.023322 +0530,
183,0,183,0,331.5861120999325,,331.52872780000325,10,331.5861120999325,331.5861120999325,0.04249209992121905,333.20296729996335,[-0.4101851851851852],[-0.25462962962962965],[1],[0],[0],[1.6329769999720156],['target'],590460,001,2024-10-10_19h35.56.830,Task3_VisualSearch,2024.1.5,None,2024-10-10 19h36.09.023322 +0530,
184,0,184,0,333.27192039997317,,333.20838760002516,10,333.27192039997317,333.27192039997317,0.04748069995548576,334.79226429993287,[-0.12685185185185185],[-0.38425925925925924],[1],[0],[0],[1.5369162000715733],['target'],590460,001,2024-10-10_19h35.56.830,Task3_VisualSearch,2024.1.5,None,2024-10-10 19h36.09.023322 +0530,
185,0,185,0,334.8453712000046,,334.79914060002193,10,334.8453712000046,334.8453712000046,0.0312502000015229,336.196506200009,[0.44351851851851853],[-0.014814814814814815],[1],[0],[0],[1.367093599983491],['target'],590460,001,2024-10-10_19h35.56.830,Task3_VisualSearch,2024.1.5,None,2024-10-10 19h36.09.023322 +0530,
186,0,186,0,336.2427201999817,,336.2002264999319,10,336.2427201999817,336.2427201999817,0.026516900048591197,337.33879579999484,[0.21296296296296297],[0.04537037037037037],[1],[0],[0],[1.1122947999974713],['target'],590460,001,2024-10-10_19h35.56.830,Task3_VisualSearch,2024.1.5,None,2024-10-10 19h36.09.023322 +0530,
187,0,187,0,337.370450999937,,337.34385439998005,5,337.370450999937,337.370450999937,0.015913200099021196,338.842891999986,[-0.15185185185185185],[-0.42592592592592593],[1],[0],[0],[1.483394299983047],['target'],590460,001,2024-10-10_19h35.56.830,Task3_VisualSearch,2024.1.5,None,2024-10-10 19h36.09.023322 +0530,
188,0,188,0,338.9330801999895,,338.8507195999846,10,338.9330801999895,338.9330801999895,0.05704480002168566,340.7493347999407,[0.06759259259259259],[-0.31851851851851853],[1],[0],[0],[1.842683699913323],['target'],590460,001,2024-10-10_19h35.56.830,Task3_VisualSearch,2024.1.5,None,2024-10-10 19h36.09.023322 +0530,
189,0,189,0,340.81935280002654,,340.7553860999178,10,340.81935280002654,340.81935280002654,0.045828200061805546,343.51052509993315,[0.287962962962963],[0.47685185185185186],[1],[0],[0],[2.709707999951206],['target'],590460,001,2024-10-10_19h35.56.830,Task3_VisualSearch,2024.1.5,None,2024-10-10 19h36.09.023322 +0530,
190,0,190,0,343.55355830001645,,343.51820769999176,5,343.55355830001645,343.55355830001645,0.023072600015439093,344.8871139999246,[0.21296296296296297],[-0.4185185185185185],[1],[0],[0],[1.346773900091648],['target'],590460,001,2024-10-10_19h35.56.830,Task3_VisualSearch,2024.1.5,None,2024-10-10 19h36.09.023322 +0530,
191,0,191,0,344.96647899993695,,344.89493650000077,10,344.96647899993695,344.96647899993695,0.05242530000396073,347.16546179994475,[-0.375],[0.03425925925925926],[1],[0],[0],[2.2194243000121787],['target'],590460,001,2024-10-10_19h35.56.830,Task3_VisualSearch,2024.1.5,None,2024-10-10 19h36.09.023322 +0530,
192,0,192,0,347.1963615999557,,347.16930680000223,5,347.1963615999557,347.1963615999557,0.013937400071881711,348.8206083999248,[-0.24814814814814815],[0.025925925925925925],[1],[0],[0],[1.6374759000027552],['target'],590460,001,2024-10-10_19h35.56.830,Task3_VisualSearch,2024.1.5,None,2024-10-10 19h36.09.023322 +0530,
193,0,193,0,348.8722731999587,,348.8283058999805,5,348.8722731999587,348.8722731999587,0.030835399986244738,351.05247480003163,[-0.18888888888888888],[-0.2518518518518518],[1],[0],[0],[2.194366900017485],['target'],590460,001,2024-10-10_19h35.56.830,Task3_VisualSearch,2024.1.5,None,2024-10-10 19h36.09.023322 +0530,
194,0,194,0,351.1104001000058,,351.0598456999287,10,351.1104001000058,351.1104001000058,0.03614780004136264,352.8099271999672,[0.30092592592592593],[0.028703703703703703],[1],[0],[0],[1.714988399995491],['target'],590460,001,2024-10-10_19h35.56.830,Task3_VisualSearch,2024.1.5,None,2024-10-10 19h36.09.023322 +0530,
195,0,195,0,352.85726499999873,,352.8173383999383,5,352.85726499999873,352.85726499999873,0.029831200023181736,354.33750319993123,[-0.28888888888888886],[0.42407407407407405],[1],[0],[0],[1.4913117999676615],['target'],590460,001,2024-10-10_19h35.56.830,Task3_VisualSearch,2024.1.5,None,2024-10-10 19h36.09.023322 +0530,
196,0,196,0,354.4299702999415,,354.34425460000057,10,354.4299702999415,354.4299702999415,0.0600869000190869,355.7765130000189,[-0.2833333333333333],[0.3435185185185185],[1],[0],[0],[1.3732126000104472],['target'],590460,001,2024-10-10_19h35.56.830,Task3_VisualSearch,2024.1.5,None,2024-10-10 19h36.09.023322 +0530,
197,0,197,0,355.8304712999379,,355.78422179992776,5,355.8304712999379,355.8304712999379,0.03177719993982464,357.9394941999344,[0.13796296296296295],[-0.3037037037037037],[1],[0],[0],[2.12427240004763],['target'],590460,001,2024-10-10_19h35.56.830,Task3_VisualSearch,2024.1.5,None,2024-10-10 19h36.09.023322 +0530,
198,0,198,0,357.99508739996236,,357.9476242000237,5,357.99508739996236,357.99508739996236,0.03301510005258024,359.139494300005,[0.41574074074074074],[0.10555555555555556],[1],[0],[0],[1.160005500074476],['target'],590460,001,2024-10-10_19h35.56.830,Task3_VisualSearch,2024.1.5,None,2024-10-10 19h36.09.023322 +0530,
199,0,199,0,359.2060937000206,,359.1471413000254,10,359.2060937000206,359.2060937000206,0.04356939997524023,361.6184050999582,[0.008333333333333333],[-0.45925925925925926],[1],[0],[0],[2.428745200042613],['target'],590460,001,2024-10-10_19h35.56.830,Task3_VisualSearch,2024.1.5,None,2024-10-10 19h36.09.023322 +0530,
