staircase.thisTrialN,staircase.stepSize,staircase.intensity,thisRow.t,notes,trial.started,fixation.started,grating.started,key_resp.started,fixation.stopped,grating.stopped,trial.stopped,corrAns,tilt,key_resp.corr,staircase.response,key_resp.rt,participant,session,date,expName,psychopyVersion,frameRate,expStart
0,2,10,0.0225929,,0.0046071,0.0225929,0.581084,0.581084,0.588859,0.8889952,1.3615356,left,-10,1,1,0.762722,824494,1,2024-09-12_20h45.24.675,adaptive_staircase,2024.1.5,None,2024-09-12 20h46.03.307120 +0530
1,2,8,1.3719141,,1.3616591,1.3719141,1.8723086,1.8723086,1.8723086,2.1720316,2.4904373,left,-8,1,1,0.6103983,824494,1,2024-09-12_20h45.24.675,adaptive_staircase,2024.1.5,None,2024-09-12 20h46.03.307120 +0530
2,2,6,2.5055866,,2.4905259,2.5055866,3.0055901,3.0055901,3.0055901,3.3061125,3.5245952,right,6,1,1,0.5087182,824494,1,2024-09-12_20h45.24.675,adaptive_staircase,2024.1.5,None,2024-09-12 20h46.03.307120 +0530
3,2,4,3.5391365,,3.5247646,3.5391365,4.0386815,4.0386815,4.0386815,4.3386157,4.6567548,right,4,1,1,0.6014841,824494,1,2024-09-12_20h45.24.675,adaptive_staircase,2024.1.5,None,2024-09-12 20h46.03.307120 +0530
4,1,2,4.6720959,,4.6568674,4.6720959,5.1722605,5.1722605,5.1722605,5.472041,5.6897464,right,2,0,0,0.5080795,824494,1,2024-09-12_20h45.24.675,adaptive_staircase,2024.1.5,None,2024-09-12 20h46.03.307120 +0530
5,1,3,5.7050889,,5.6898523,5.7050889,6.2055376,6.2055376,6.2055376,6.5049962,6.8576234,right,3,1,1,0.6395926,824494,1,2024-09-12_20h45.24.675,adaptive_staircase,2024.1.5,None,2024-09-12 20h46.03.307120 +0530
6,1,3,6.8724417,,6.8578108,6.8724417,7.3720322,7.3720322,7.3720322,7.6718929,7.8733172,right,3,1,1,0.4871472,824494,1,2024-09-12_20h45.24.675,adaptive_staircase,2024.1.5,None,2024-09-12 20h46.03.307120 +0530
7,1,3,7.8886151,,7.8734134,7.8886151,8.3888804,8.3888804,8.3888804,8.688729,8.8741794,right,3,1,1,0.478418,824494,1,2024-09-12_20h45.24.675,adaptive_staircase,2024.1.5,None,2024-09-12 20h46.03.307120 +0530
8,1,2,8.8887161,,8.8743598,8.8887161,9.3887111,9.3887111,9.3887111,9.6880259,9.9732522,left,-2,1,1,0.5686545,824494,1,2024-09-12_20h45.24.675,adaptive_staircase,2024.1.5,None,2024-09-12 20h46.03.307120 +0530
9,1,2,9.988626,,9.9733723,9.988626,10.4889485,10.4889485,10.4889485,10.7887315,11.0573936,left,-2,1,1,0.5598891,824494,1,2024-09-12_20h45.24.675,adaptive_staircase,2024.1.5,None,2024-09-12 20h46.03.307120 +0530
10,1,2,11.0724112,,11.0575685,11.0724112,11.5723466,11.5723466,11.5723466,11.8731144,12.1410545,right,2,1,1,0.5566218,824494,1,2024-09-12_20h45.24.675,adaptive_staircase,2024.1.5,None,2024-09-12 20h46.03.307120 +0530
11,1,1,12.1558741,,12.1412594,12.1558741,12.6551611,12.6551611,12.6551611,12.955213,13.1076105,right,1,1,1,0.4456448,824494,1,2024-09-12_20h45.24.675,adaptive_staircase,2024.1.5,None,2024-09-12 20h46.03.307120 +0530
12,1,1,13.1224367,,13.1077978,13.1224367,13.622421,13.622421,13.622421,13.9222939,14.4737262,right,1,1,1,0.8461365,824494,1,2024-09-12_20h45.24.675,adaptive_staircase,2024.1.5,None,2024-09-12 20h46.03.307120 +0530
13,0.5,1,14.489193,,14.4738723,14.489193,14.9884254,14.9884254,14.9884254,15.2881715,15.8067498,left,-1,0,0,0.8121893,824494,1,2024-09-12_20h45.24.675,adaptive_staircase,2024.1.5,None,2024-09-12 20h46.03.307120 +0530
14,0.5,1.5,15.8223059,,15.8068648,15.8223059,16.3217816,16.3217816,16.3217816,16.6209768,17.1065147,right,1.5,1,1,0.7794831,824494,1,2024-09-12_20h45.24.675,adaptive_staircase,2024.1.5,None,2024-09-12 20h46.03.307120 +0530
15,0.5,1.5,17.1219024,,17.106642,17.1219024,17.6217086,17.6217086,17.6217086,17.922055,18.7232827,left,-1.5,1,1,1.0881745,824494,1,2024-09-12_20h45.24.675,adaptive_staircase,2024.1.5,None,2024-09-12 20h46.03.307120 +0530
16,0.5,1.5,18.7380106,,18.7234213,18.7380106,19.2384488,19.2384488,19.2384488,19.5381513,19.7398782,right,1.5,1,1,0.4997527,824494,1,2024-09-12_20h45.24.675,adaptive_staircase,2024.1.5,None,2024-09-12 20h46.03.307120 +0530
17,0.5,1,19.7545844,,19.7400075,19.7545844,20.2552088,20.2552088,20.2552088,20.5556127,20.756753,left,-1,1,1,0.4847499,824494,1,2024-09-12_20h45.24.675,adaptive_staircase,2024.1.5,None,2024-09-12 20h46.03.307120 +0530
18,0.5,1,20.771812,,20.7568824,20.771812,21.2711879,21.2711879,21.2711879,21.5713951,21.9738774,left,-1,1,1,0.6979235,824494,1,2024-09-12_20h45.24.675,adaptive_staircase,2024.1.5,None,2024-09-12 20h46.03.307120 +0530
19,0.5,1,21.9881593,,21.9740426,21.9881593,22.4881215,22.4881215,22.4881215,22.788105,23.2897481,left,-1,1,1,0.7934201,824494,1,2024-09-12_20h45.24.675,adaptive_staircase,2024.1.5,None,2024-09-12 20h46.03.307120 +0530
20,0.5,1,23.3045891,,23.2898778,23.3045891,23.8048634,23.8048634,23.8048634,24.1042613,24.4403041,left,-1,1,1,0.6193636,824494,1,2024-09-12_20h45.24.675,adaptive_staircase,2024.1.5,None,2024-09-12 20h46.03.307120 +0530
21,0.5,1,24.4543449,,24.4404167,24.4543449,24.9547302,24.9547302,24.9547302,25.2546664,25.7062904,right,1,1,1,0.7430839,824494,1,2024-09-12_20h45.24.675,adaptive_staircase,2024.1.5,None,2024-09-12 20h46.03.307120 +0530
22,0.5,1,25.7207857,,25.7064494,25.7207857,26.2217489,26.2217489,26.2217489,26.5211676,27.0557086,right,1,0,0,0.8315443,824494,1,2024-09-12_20h45.24.675,adaptive_staircase,2024.1.5,None,2024-09-12 20h46.03.307120 +0530
23,0.5,1.5,27.0713025,,27.055851,27.0713025,27.5704384,27.5704384,27.5704384,27.8705312,28.1393956,right,1.5,1,1,0.5601926,824494,1,2024-09-12_20h45.24.675,adaptive_staircase,2024.1.5,None,2024-09-12 20h46.03.307120 +0530
24,0.5,1.5,28.1545844,,28.1395543,28.1545844,28.655123,28.655123,28.655123,28.9705226,29.289272,left,-1.5,1,1,0.6252899,824494,1,2024-09-12_20h45.24.675,adaptive_staircase,2024.1.5,None,2024-09-12 20h46.03.307120 +0530
25,0.5,1.5,29.3048322,,29.2894927,29.3048322,29.803736,29.803736,29.803736,30.1039404,30.3890307,right,1.5,1,1,0.5716667,824494,1,2024-09-12_20h45.24.675,adaptive_staircase,2024.1.5,None,2024-09-12 20h46.03.307120 +0530
26,0.5,1,30.4042762,,30.3892133,30.4042762,30.9043244,30.9043244,30.9043244,31.2039451,31.3724843,left,-1,1,1,0.4641733,824494,1,2024-09-12_20h45.24.675,adaptive_staircase,2024.1.5,None,2024-09-12 20h46.03.307120 +0530
27,0.5,1,31.387687,,31.3726424,31.387687,31.8878804,31.8878804,31.8878804,32.1877002,32.5566091,left,-1,1,1,0.6551406,824494,1,2024-09-12_20h45.24.675,adaptive_staircase,2024.1.5,None,2024-09-12 20h46.03.307120 +0530
28,0.5,1,32.5710712,,32.5567534,32.5710712,33.0706496,33.0706496,33.0706496,33.3711323,33.6056808,right,1,0,0,0.5289607,824494,1,2024-09-12_20h45.24.675,adaptive_staircase,2024.1.5,None,2024-09-12 20h46.03.307120 +0530
29,0.5,1.5,33.6212485,,33.605877,33.6212485,34.121223,34.121223,34.121223,34.4214,34.6560306,right,1.5,1,1,0.5182727,824494,1,2024-09-12_20h45.24.675,adaptive_staircase,2024.1.5,None,2024-09-12 20h46.03.307120 +0530
30,0.5,1.5,34.6711512,,34.6562215,34.6711512,35.1714015,35.1714015,35.1714015,35.4708221,35.8066428,left,-1.5,1,1,0.6323912,824494,1,2024-09-12_20h45.24.675,adaptive_staircase,2024.1.5,None,2024-09-12 20h46.03.307120 +0530
31,0.5,1.5,35.8209361,,35.8068109,35.8209361,36.3211148,36.3211148,36.3211148,36.6208055,36.8561053,left,-1.5,1,1,0.5321544,824494,1,2024-09-12_20h45.24.675,adaptive_staircase,2024.1.5,None,2024-09-12 20h46.03.307120 +0530
32,0.5,1,36.8709785,,36.8563001,36.8709785,37.3701358,37.3701358,37.3701358,37.6704584,37.9388513,right,1,1,1,0.5625809,824494,1,2024-09-12_20h45.24.675,adaptive_staircase,2024.1.5,None,2024-09-12 20h46.03.307120 +0530
33,0.5,1,37.9540198,,37.9389522,37.9540198,38.4540703,38.4540703,38.4540703,38.7535687,38.9897987,left,-1,1,1,0.531831,824494,1,2024-09-12_20h45.24.675,adaptive_staircase,2024.1.5,None,2024-09-12 20h46.03.307120 +0530
34,0.5,1,39.0037593,,38.9899255,39.0037593,39.5042595,39.5042595,39.5042595,39.8038922,40.1220885,left,-1,1,1,0.6147969,824494,1,2024-09-12_20h45.24.675,adaptive_staircase,2024.1.5,None,2024-09-12 20h46.03.307120 +0530
35,0.5,1,40.1373521,,40.1222045,40.1373521,40.6372864,40.6372864,40.6372864,40.9371721,41.138824,right,1,0,0,0.4877341,824494,1,2024-09-12_20h45.24.675,adaptive_staircase,2024.1.5,None,2024-09-12 20h46.03.307120 +0530
36,0.5,1.5,41.1539024,,41.1390058,41.1539024,41.653594,41.653594,41.653594,41.9537034,42.2219542,right,1.5,0,0,0.5619618,824494,1,2024-09-12_20h45.24.675,adaptive_staircase,2024.1.5,None,2024-09-12 20h46.03.307120 +0530
37,0.5,2,42.2367741,,42.2220557,42.2367741,42.7367573,42.7367573,42.7367573,43.0370045,43.2222884,left,-2,0,0,0.4809192,824494,1,2024-09-12_20h45.24.675,adaptive_staircase,2024.1.5,None,2024-09-12 20h46.03.307120 +0530
38,0.5,2.5,43.2371552,,43.2224253,43.2371552,43.7366277,43.7366277,43.7366277,44.0365837,45.8540392,left,-2.5,1,1,2.1033332,824494,1,2024-09-12_20h45.24.675,adaptive_staircase,2024.1.5,None,2024-09-12 20h46.03.307120 +0530
39,0.5,2.5,45.8695481,,45.8541295,45.8695481,46.3702661,46.3702661,46.3702661,46.6706398,47.4876401,right,2.5,1,1,1.1150167,824494,1,2024-09-12_20h45.24.675,adaptive_staircase,2024.1.5,None,2024-09-12 20h46.03.307120 +0530
40,0.5,2.5,47.5028079,,47.4877405,47.5028079,48.0030786,48.0030786,48.0030786,48.3025019,48.9542105,left,-2.5,1,1,0.945169,824494,1,2024-09-12_20h45.24.675,adaptive_staircase,2024.1.5,None,2024-09-12 20h46.03.307120 +0530
41,0.5,2,48.9692687,,48.9543265,48.9692687,49.4704987,49.4704987,49.4704987,49.7697272,50.5893625,left,-2,1,1,1.1084806,824494,1,2024-09-12_20h45.24.675,adaptive_staircase,2024.1.5,None,2024-09-12 20h46.03.307120 +0530
42,0.5,2,50.6038033,,50.5895094,50.6038033,51.1040408,51.1040408,51.1040408,51.4034343,52.1059232,right,2,1,1,0.9889984,824494,1,2024-09-12_20h45.24.675,adaptive_staircase,2024.1.5,None,2024-09-12 20h46.03.307120 +0530
43,0.5,2,52.120423,,52.1061398,52.120423,52.6202458,52.6202458,52.6202458,52.9194454,57.8875433,right,2,1,1,5.2626198,824494,1,2024-09-12_20h45.24.675,adaptive_staircase,2024.1.5,None,2024-09-12 20h46.03.307120 +0530
44,0.5,1.5,57.9030017,,57.8876854,57.9030017,58.4033232,58.4033232,58.4033232,58.7032744,59.3045263,right,1.5,0,0,0.8932112,824494,1,2024-09-12_20h45.24.675,adaptive_staircase,2024.1.5,None,2024-09-12 20h46.03.307120 +0530
45,0.5,2,59.3196614,,59.3046619,59.3196614,59.8197738,59.8197738,59.8197738,60.1191756,60.6218781,right,2,1,1,0.7876311,824494,1,2024-09-12_20h45.24.675,adaptive_staircase,2024.1.5,None,2024-09-12 20h46.03.307120 +0530
46,0.5,2,60.6365498,,60.622032,60.6365498,61.1366083,61.1366083,61.1366083,61.4364499,62.7376039,right,2,1,1,1.5898932,824494,1,2024-09-12_20h45.24.675,adaptive_staircase,2024.1.5,None,2024-09-12 20h46.03.307120 +0530
47,0.5,2,62.7519795,,62.7377729,62.7519795,63.2530826,63.2530826,63.2530826,63.5532149,64.4879964,right,2,1,1,1.2172519,824494,1,2024-09-12_20h45.24.675,adaptive_staircase,2024.1.5,None,2024-09-12 20h46.03.307120 +0530
48,0.5,1.5,64.5026098,,64.4881439,64.5026098,65.0028917,65.0028917,65.0028917,65.3026038,69.836274,right,1.5,0,0,4.8298578,824494,1,2024-09-12_20h45.24.675,adaptive_staircase,2024.1.5,None,2024-09-12 20h46.03.307120 +0530
49,0.5,2,69.8516702,,69.8363769,69.8516702,70.352441,70.352441,70.352441,70.6516575,71.1366411,right,2,1,1,0.778915,824494,1,2024-09-12_20h45.24.675,adaptive_staircase,2024.1.5,None,2024-09-12 20h46.03.307120 +0530
50,0.5,2,71.1518514,,71.1367551,71.1518514,71.651984,71.651984,71.651984,71.9515751,73.1036251,left,-2,1,1,1.4344487,824494,1,2024-09-12_20h45.24.675,adaptive_staircase,2024.1.5,None,2024-09-12 20h46.03.307120 +0530
51,0.5,2,73.118849,,73.1038478,73.118849,73.6184207,73.6184207,73.6184207,73.9184706,74.2875848,left,-2,1,1,0.6535489,824494,1,2024-09-12_20h45.24.675,adaptive_staircase,2024.1.5,None,2024-09-12 20h46.03.307120 +0530
52,0.5,1.5,74.3027254,,74.2877354,74.3027254,74.8023807,74.8023807,74.8023807,75.102244,75.5882191,left,-1.5,1,1,0.7810172,824494,1,2024-09-12_20h45.24.675,adaptive_staircase,2024.1.5,None,2024-09-12 20h46.03.307120 +0530
53,0.5,1.5,75.6027524,,75.5884195,75.6027524,76.1023467,76.1023467,76.1023467,76.4024822,76.7704834,left,-1.5,1,1,0.6653464,824494,1,2024-09-12_20h45.24.675,adaptive_staircase,2024.1.5,None,2024-09-12 20h46.03.307120 +0530
54,0.5,1.5,76.7854312,,76.7706214,76.7854312,77.2855489,77.2855489,77.2855489,77.5853862,78.1863535,left,-1.5,1,1,0.8895048,824494,1,2024-09-12_20h45.24.675,adaptive_staircase,2024.1.5,None,2024-09-12 20h46.03.307120 +0530
55,0.5,1,78.2020423,,78.1864943,78.2020423,78.6855891,78.6855891,78.7019094,78.9852862,79.3538232,right,1,1,1,0.6604988,824494,1,2024-09-12_20h45.24.675,adaptive_staircase,2024.1.5,None,2024-09-12 20h46.03.307120 +0530
56,0.5,1,79.3694414,,79.3539847,79.3694414,79.8687605,79.8687605,79.8862354,80.168158,80.637433,right,1,1,1,0.7659568,824494,1,2024-09-12_20h45.24.675,adaptive_staircase,2024.1.5,None,2024-09-12 20h46.03.307120 +0530
57,0.5,1,80.6519439,,80.637613,80.6519439,81.1516725,81.1516725,81.1516725,81.4521537,82.1207999,right,1,1,1,0.9575925,824494,1,2024-09-12_20h45.24.675,adaptive_staircase,2024.1.5,None,2024-09-12 20h46.03.307120 +0530
58,0.5,1,82.1354867,,82.1209707,82.1354867,82.6353433,82.6353433,82.6353433,82.9343821,83.8026003,left,-1,1,1,1.1589776,824494,1,2024-09-12_20h45.24.675,adaptive_staircase,2024.1.5,None,2024-09-12 20h46.03.307120 +0530
59,0.5,1,83.8184005,,83.8027372,83.8184005,84.3179996,84.3179996,84.3179996,84.6182887,86.7202632,right,1,1,1,2.3854533,824494,1,2024-09-12_20h45.24.675,adaptive_staircase,2024.1.5,None,2024-09-12 20h46.03.307120 +0530
60,0.5,1,86.7345266,,86.720397,86.7345266,87.235065,87.235065,87.235065,87.535123,88.1538191,right,1,1,1,0.9063227,824494,1,2024-09-12_20h45.24.675,adaptive_staircase,2024.1.5,None,2024-09-12 20h46.03.307120 +0530
61,0.5,1,88.1683742,,88.1540132,88.1683742,88.6682383,88.6682383,88.6682383,88.9682375,89.2871506,right,1,1,1,0.6057793,824494,1,2024-09-12_20h45.24.675,adaptive_staircase,2024.1.5,None,2024-09-12 20h46.03.307120 +0530
62,0.5,1,89.301549,,89.2873268,89.301549,89.801017,89.801017,89.801017,90.1013056,90.3202401,left,-1,0,0,0.5018549,824494,1,2024-09-12_20h45.24.675,adaptive_staircase,2024.1.5,None,2024-09-12 20h46.03.307120 +0530
63,0.5,1.5,90.3348269,,90.3204562,90.3348269,90.8349315,90.8349315,90.8349315,91.1350647,91.8358576,left,-1.5,1,1,0.994299,824494,1,2024-09-12_20h45.24.675,adaptive_staircase,2024.1.5,None,2024-09-12 20h46.03.307120 +0530
64,0.5,1.5,91.8513842,,91.8359894,91.8513842,92.3355582,92.3355582,92.3513159,92.6344964,93.3867192,right,1.5,1,1,1.0482649,824494,1,2024-09-12_20h45.24.675,adaptive_staircase,2024.1.5,None,2024-09-12 20h46.03.307120 +0530
65,0.5,1.5,93.4012705,,93.3869276,93.4012705,93.9016991,93.9016991,93.9016991,94.2011075,94.6532581,right,1.5,1,1,0.7483568,824494,1,2024-09-12_20h45.24.675,adaptive_staircase,2024.1.5,None,2024-09-12 20h46.03.307120 +0530
66,0.5,1,94.6686007,,94.6534111,94.6686007,95.1680458,95.1680458,95.1680458,95.4680334,95.9867239,left,-1,1,1,0.8012684,824494,1,2024-09-12_20h45.24.675,adaptive_staircase,2024.1.5,None,2024-09-12 20h46.03.307120 +0530
67,0.5,1,96.0015179,,95.9869038,96.0015179,96.4850111,96.4850111,96.5012498,96.7842525,97.5531075,right,1,1,1,1.0635324,824494,1,2024-09-12_20h45.24.675,adaptive_staircase,2024.1.5,None,2024-09-12 20h46.03.307120 +0530
68,0.5,1,97.5673602,,97.5532325,97.5673602,98.0676769,98.0676769,98.0676769,98.3677611,98.7528957,left,-1,1,1,0.6751495,824494,1,2024-09-12_20h45.24.675,adaptive_staircase,2024.1.5,None,2024-09-12 20h46.03.307120 +0530
69,0.5,1,98.7681068,,98.7530602,98.7681068,99.2678439,99.2678439,99.2678439,99.567652,99.985848,right,1,1,1,0.7095866,824494,1,2024-09-12_20h45.24.675,adaptive_staircase,2024.1.5,None,2024-09-12 20h46.03.307120 +0530
70,0.5,1,100.0010203,,99.9860115,100.0010203,100.484564,100.484564,100.5007673,100.7838082,101.2692488,right,1,1,1,0.7799597,824494,1,2024-09-12_20h45.24.675,adaptive_staircase,2024.1.5,None,2024-09-12 20h46.03.307120 +0530
71,0.5,1,101.2840908,,101.2693795,101.2840908,101.7846324,101.7846324,101.7846324,102.083919,102.4534687,left,-1,1,1,0.6668537,824494,1,2024-09-12_20h45.24.675,adaptive_staircase,2024.1.5,None,2024-09-12 20h46.03.307120 +0530
72,0.5,1,102.467317,,102.4536058,102.467317,102.9679401,102.9679401,102.9679401,103.2684938,103.9687094,left,-1,1,1,0.9838889,824494,1,2024-09-12_20h45.24.675,adaptive_staircase,2024.1.5,None,2024-09-12 20h46.03.307120 +0530
73,0.5,1,103.9839821,,103.9688486,103.9839821,104.4675175,104.4675175,104.4841587,104.7670471,105.5357827,left,-1,1,1,1.0541744,824494,1,2024-09-12_20h45.24.675,adaptive_staircase,2024.1.5,None,2024-09-12 20h46.03.307120 +0530
74,0.5,1,105.5510128,,105.5358624,105.5510128,106.0509774,106.0509774,106.0509774,106.3502979,106.6016869,right,1,1,1,0.5484147,824494,1,2024-09-12_20h45.24.675,adaptive_staircase,2024.1.5,None,2024-09-12 20h46.03.307120 +0530
75,0.5,1,106.6165272,,106.6017905,106.6165272,107.1167348,107.1167348,107.1167348,107.4168757,108.0184373,left,-1,1,1,0.8929668,824494,1,2024-09-12_20h45.24.675,adaptive_staircase,2024.1.5,None,2024-09-12 20h46.03.307120 +0530
76,0.5,1,108.0344719,,108.0185495,108.0344719,108.5339479,108.5339479,108.5339479,108.8342962,110.0850858,right,1,1,1,1.5389085,824494,1,2024-09-12_20h45.24.675,adaptive_staircase,2024.1.5,None,2024-09-12 20h46.03.307120 +0530
77,0.5,1,110.1006409,,110.0852303,110.1006409,110.6009909,110.6009909,110.6009909,110.9009719,111.6353776,right,1,1,1,1.0212709,824494,1,2024-09-12_20h45.24.675,adaptive_staircase,2024.1.5,None,2024-09-12 20h46.03.307120 +0530
78,0.5,1,111.6502471,,111.6355526,111.6502471,112.1503517,112.1503517,112.1503517,112.4499467,112.8344649,right,1,1,1,0.6728789,824494,1,2024-09-12_20h45.24.675,adaptive_staircase,2024.1.5,None,2024-09-12 20h46.03.307120 +0530
79,0.5,1,112.8497532,,112.8345607,112.8497532,113.3498918,113.3498918,113.3498918,113.6503073,114.0015469,left,-1,1,1,0.6423697,824494,1,2024-09-12_20h45.24.675,adaptive_staircase,2024.1.5,None,2024-09-12 20h46.03.307120 +0530
80,0.5,1,114.0163404,,114.0016322,114.0163404,114.5007868,114.5007868,114.5172481,114.7999916,115.6678992,left,-1,1,1,1.1574916,824494,1,2024-09-12_20h45.24.675,adaptive_staircase,2024.1.5,None,2024-09-12 20h46.03.307120 +0530
81,0.5,1,115.6834002,,115.6680578,115.6834002,116.1668082,116.1668082,116.1839362,116.4665855,116.9361407,left,-1,1,1,0.7624724,824494,1,2024-09-12_20h45.24.675,adaptive_staircase,2024.1.5,None,2024-09-12 20h46.03.307120 +0530
82,0.5,1,116.9503215,,116.936336,116.9503215,117.4498899,117.4498899,117.4498899,117.7501099,118.7853797,left,-1,1,1,1.326572,824494,1,2024-09-12_20h45.24.675,adaptive_staircase,2024.1.5,None,2024-09-12 20h46.03.307120 +0530
83,0.5,1,118.7997673,,118.7855373,118.7997673,119.3003173,119.3003173,119.3003173,119.5998635,119.8683729,right,1,1,1,0.5591776,824494,1,2024-09-12_20h45.24.675,adaptive_staircase,2024.1.5,None,2024-09-12 20h46.03.307120 +0530
84,0.5,1,119.8832944,,119.8685184,119.8832944,120.3837017,120.3837017,120.3837017,120.6837694,121.284334,right,1,1,1,0.8883479,824494,1,2024-09-12_20h45.24.675,adaptive_staircase,2024.1.5,None,2024-09-12 20h46.03.307120 +0530
85,0.5,1,121.299187,,121.2844424,121.299187,121.8006259,121.8006259,121.8006259,122.1000753,122.7846105,left,-1,1,1,0.9687633,824494,1,2024-09-12_20h45.24.675,adaptive_staircase,2024.1.5,None,2024-09-12 20h46.03.307120 +0530
86,0.5,1,122.7998963,,122.7847414,122.7998963,123.300101,123.300101,123.300101,123.6006139,125.6508556,left,-1,0,0,2.3453338,824494,1,2024-09-12_20h45.24.675,adaptive_staircase,2024.1.5,None,2024-09-12 20h46.03.307120 +0530
87,0.5,1.5,125.6660524,,125.6509921,125.6660524,126.1660779,126.1660779,126.1660779,126.4662159,127.1671477,right,1.5,1,1,0.9886954,824494,1,2024-09-12_20h45.24.675,adaptive_staircase,2024.1.5,None,2024-09-12 20h46.03.307120 +0530
88,0.5,1.5,127.1827121,,127.1672693,127.1827121,127.6827254,127.6827254,127.6827254,127.982637,128.7504876,right,1.5,1,1,1.0523058,824494,1,2024-09-12_20h45.24.675,adaptive_staircase,2024.1.5,None,2024-09-12 20h46.03.307120 +0530
89,0.5,1.5,128.7656949,,128.7505994,128.7656949,129.2663137,129.2663137,129.2663137,129.5663526,130.0502272,left,-1.5,1,1,0.7745646,824494,1,2024-09-12_20h45.24.675,adaptive_staircase,2024.1.5,None,2024-09-12 20h46.03.307120 +0530
90,0.5,1,130.065489,,130.0503288,130.065489,130.5653516,130.5653516,130.5653516,130.86656,131.4181149,left,-1,1,1,0.8469231,824494,1,2024-09-12_20h45.24.675,adaptive_staircase,2024.1.5,None,2024-09-12 20h46.03.307120 +0530
91,0.5,1,131.4328689,,131.4182602,131.4328689,131.9324299,131.9324299,131.9324299,132.2324591,132.7342722,right,1,1,1,0.7893394,824494,1,2024-09-12_20h45.24.675,adaptive_staircase,2024.1.5,None,2024-09-12 20h46.03.307120 +0530
92,0.5,1,132.7498619,,132.7343528,132.7498619,133.2490607,133.2490607,133.2490607,133.549596,134.2342094,right,1,1,1,0.973624,824494,1,2024-09-12_20h45.24.675,adaptive_staircase,2024.1.5,None,2024-09-12 20h46.03.307120 +0530
93,0.5,1,134.2498254,,134.2344145,134.2498254,134.7491242,134.7491242,134.7491242,135.0488684,135.7183666,left,-1,1,1,0.9603236,824494,1,2024-09-12_20h45.24.675,adaptive_staircase,2024.1.5,None,2024-09-12 20h46.03.307120 +0530
94,0.5,1,135.7325343,,135.7185236,135.7325343,136.2322604,136.2322604,136.2322604,136.5321336,137.117478,right,1,1,1,0.8775962,824494,1,2024-09-12_20h45.24.675,adaptive_staircase,2024.1.5,None,2024-09-12 20h46.03.307120 +0530
95,0.5,1,137.132806,,137.117615,137.132806,137.6329109,137.6329109,137.6329109,137.9330272,138.4849527,right,1,1,1,0.8458439,824494,1,2024-09-12_20h45.24.675,adaptive_staircase,2024.1.5,None,2024-09-12 20h46.03.307120 +0530
96,0.5,1,138.4989197,,138.4851494,138.4989197,138.9996028,138.9996028,138.9996028,139.299325,139.6183241,left,-1,1,1,0.6014277,824494,1,2024-09-12_20h45.24.675,adaptive_staircase,2024.1.5,None,2024-09-12 20h46.03.307120 +0530
97,0.5,1,139.6329445,,139.61846,139.6329445,140.1326385,140.1326385,140.1326385,140.4327518,140.9843961,left,-1,1,1,0.8363237,824494,1,2024-09-12_20h45.24.675,adaptive_staircase,2024.1.5,None,2024-09-12 20h46.03.307120 +0530
98,0.5,1,140.9990176,,140.9845467,140.9990176,141.4991829,141.4991829,141.4991829,141.7992692,142.9175294,left,-1,0,0,1.4064286,824494,1,2024-09-12_20h45.24.675,adaptive_staircase,2024.1.5,None,2024-09-12 20h46.03.307120 +0530
99,0.5,1.5,142.9323068,,142.9177637,142.9323068,143.4329123,143.4329123,143.4329123,143.7320549,144.11711,right,1.5,1,1,0.6763837,824494,1,2024-09-12_20h45.24.675,adaptive_staircase,2024.1.5,None,2024-09-12 20h46.03.307120 +0530
,,,,,,,,,,,,,,,,,,,,,,,
,,,,,,,,,,,,,Difference Threshold,1.4,,,,,,,,,
