trials.thisRepN,trials.thisTrialN,trials.thisN,trials.thisIndex,thisRow.t,notes,trial.started,num_distr,fixation.started,target.started,mouse.started,trial.stopped,mouse.x,mouse.y,mouse.leftButton,mouse.midButton,mouse.rightButton,mouse.time,mouse.clicked_name,participant,session,date,expName,psychopyVersion,frameRate,expStart,
0,0,0,0,0.06445319997146726,,0.006655600038357079,10,0.06445319997146726,0.06445319997146726,0.04594610002823174,2.168779000057839,[0.11018518518518519],[0.1685185185185185],[1],[0],[0],[2.122651100042276],['target'],480720,001,2024-10-10_22h37.42.315,Task3_VisualSearch,2024.1.5,None,2024-10-10 22h37.54.502637 +0530,
1,0,1,0,2.241063200053759,,2.175397300045006,10,2.241063200053759,2.241063200053759,0.03817489999346435,4.98437019996345,[0.41388888888888886],[-0.37222222222222223],[1],[0],[0],[2.7715021999320015],['target'],480720,001,2024-10-10_22h37.42.315,Task3_VisualSearch,2024.1.5,None,2024-10-10 22h37.54.502637 +0530,
2,0,2,0,5.012867800076492,,4.987841199967079,5,5.012867800076492,5.012867800076492,0.016151599935255945,7.037623399985023,[-0.337037037037037],[-0.06851851851851852],[1],[0],[0],[2.0338371000252664],['target'],480720,001,2024-10-10_22h37.42.315,Task3_VisualSearch,2024.1.5,None,2024-10-10 22h37.54.502637 +0530,
3,0,3,0,7.070117900031619,,7.0427627000026405,5,7.070117900031619,7.070117900031619,0.016672200057655573,9.016812999965623,[0.2222222222222222],[0.1175925925925926],[1],[0],[0],[1.9578922999789938],['target'],480720,001,2024-10-10_22h37.42.315,Task3_VisualSearch,2024.1.5,None,2024-10-10 22h37.54.502637 +0530,
4,0,4,0,9.05189970007632,,9.021836100029759,5,9.05189970007632,9.05189970007632,0.01809609995689243,11.417312900070101,[0.023148148148148147],[-0.3648148148148148],[1],[0],[0],[2.3779307000804693],['target'],480720,001,2024-10-10_22h37.42.315,Task3_VisualSearch,2024.1.5,None,2024-10-10 22h37.54.502637 +0530,
5,0,5,0,11.477306400076486,,11.422313899965957,10,11.477306400076486,11.477306400076486,0.03771249996498227,14.517027999972925,[0.45185185185185184],[0.07407407407407407],[1],[0],[0],[3.057510199956596],['target'],480720,001,2024-10-10_22h37.42.315,Task3_VisualSearch,2024.1.5,None,2024-10-10 22h37.54.502637 +0530,
6,0,6,0,14.546756500029005,,14.520724900066853,5,14.546756500029005,14.546756500029005,0.015765000018291175,17.334574899985455,[-0.1361111111111111],[-0.11666666666666667],[1],[0],[0],[2.7984907999634743],['target'],480720,001,2024-10-10_22h37.42.315,Task3_VisualSearch,2024.1.5,None,2024-10-10 22h37.54.502637 +0530,
7,0,7,0,17.391143699991517,,17.341107800020836,10,17.391143699991517,17.391143699991517,0.032036100048571825,19.499755800003186,[0.30925925925925923],[-0.18888888888888888],[1],[0],[0],[2.127420000033453],['target'],480720,001,2024-10-10_22h37.42.315,Task3_VisualSearch,2024.1.5,None,2024-10-10 22h37.54.502637 +0530,
8,0,8,0,19.530486900010146,,19.503550600027665,5,19.530486900010146,19.530486900010146,0.015722100040875375,21.202307300060056,[0.26666666666666666],[-0.1037037037037037],[1],[0],[0],[1.6834944000001997],['target'],480720,001,2024-10-10_22h37.42.315,Task3_VisualSearch,2024.1.5,None,2024-10-10 22h37.54.502637 +0530,
9,0,9,0,21.28517779998947,,21.20796330005396,10,21.28517779998947,21.28517779998947,0.048226900049485266,23.283320200047456,[0.3398148148148148],[-0.2101851851851852],[1],[0],[0],[2.0277085000416264],['target'],480720,001,2024-10-10_22h37.42.315,Task3_VisualSearch,2024.1.5,None,2024-10-10 22h37.54.502637 +0530,
10,0,10,0,23.342835500021465,,23.287093200022355,10,23.342835500021465,23.342835500021465,0.03380530001595616,25.172482899972238,[0.28055555555555556],[0.21944444444444444],[1],[0],[0],[1.851882899994962],['target'],480720,001,2024-10-10_22h37.42.315,Task3_VisualSearch,2024.1.5,None,2024-10-10 22h37.54.502637 +0530,
11,0,11,0,25.202983299968764,,25.17585710005369,5,25.202983299968764,25.202983299968764,0.015151100000366569,33.851762100006454,[0.4935185185185185],[0.15648148148148147],[1],[0],[0],[8.660910099977627],['target'],480720,001,2024-10-10_22h37.42.315,Task3_VisualSearch,2024.1.5,None,2024-10-10 22h37.54.502637 +0530,
12,0,12,0,33.93129169999156,,33.8574624999892,10,33.93129169999156,33.93129169999156,0.0430875999154523,35.4989135999931,[0.12685185185185185],[0.15185185185185185],[1],[0],[0],[1.5990297000389546],['target'],480720,001,2024-10-10_22h37.42.315,Task3_VisualSearch,2024.1.5,None,2024-10-10 22h37.54.502637 +0530,
13,0,13,0,35.52895740000531,,35.502881600055844,5,35.52895740000531,35.52895740000531,0.015078100026585162,37.05014160007704,[0.10925925925925926],[-0.08425925925925926],[1],[0],[0],[1.5322991999564692],['target'],480720,001,2024-10-10_22h37.42.315,Task3_VisualSearch,2024.1.5,None,2024-10-10 22h37.54.502637 +0530,
14,0,14,0,37.11413730005734,,37.0583001000341,10,37.11413730005734,37.11413730005734,0.03951449994929135,39.799852399970405,[0.15],[-0.4824074074074074],[1],[0],[0],[2.7034817999228835],['target'],480720,001,2024-10-10_22h37.42.315,Task3_VisualSearch,2024.1.5,None,2024-10-10 22h37.54.502637 +0530,
15,0,15,0,39.8521286000032,,39.80378419999033,10,39.8521286000032,39.8521286000032,0.03061709995381534,41.51564050000161,[0.026851851851851852],[0.014814814814814815],[1],[0],[0],[1.6815273999236524],['target'],480720,001,2024-10-10_22h37.42.315,Task3_VisualSearch,2024.1.5,None,2024-10-10 22h37.54.502637 +0530,
16,0,16,0,41.60902029997669,,41.51981520000845,10,41.60902029997669,41.60902029997669,0.05887500010430813,43.999159099999815,[0.46111111111111114],[0.14444444444444443],[1],[0],[0],[2.4210853000404313],['target'],480720,001,2024-10-10_22h37.42.315,Task3_VisualSearch,2024.1.5,None,2024-10-10 22h37.54.502637 +0530,
17,0,17,0,44.02824320003856,,44.00264810002409,5,44.02824320003856,44.02824320003856,0.015537000028416514,46.61572170001455,[0.07037037037037037],[0.175],[1],[0],[0],[2.5976792000001296],['target'],480720,001,2024-10-10_22h37.42.315,Task3_VisualSearch,2024.1.5,None,2024-10-10 22h37.54.502637 +0530,
18,0,18,0,46.65050540002994,,46.621321200043894,5,46.65050540002994,46.65050540002994,0.018365000025369227,49.79855269996915,[-0.44537037037037036],[0.14537037037037037],[1],[0],[0],[3.1595526000019163],['target'],480720,001,2024-10-10_22h37.42.315,Task3_VisualSearch,2024.1.5,None,2024-10-10 22h37.54.502637 +0530,
19,0,19,0,49.83180879999418,,49.80376939999405,5,49.83180879999418,49.83180879999418,0.017505600000731647,52.332603299990296,[0.1259259259259259],[-0.3],[1],[0],[0],[2.511586799984798],['target'],480720,001,2024-10-10_22h37.42.315,Task3_VisualSearch,2024.1.5,None,2024-10-10 22h37.54.502637 +0530,
20,0,20,0,52.392236400046386,,52.33953290001955,10,52.392236400046386,52.392236400046386,0.03343270008917898,54.941611899994314,[-0.3972222222222222],[0.33055555555555555],[1],[0],[0],[2.5695081000449136],['target'],480720,001,2024-10-10_22h37.42.315,Task3_VisualSearch,2024.1.5,None,2024-10-10 22h37.54.502637 +0530,
21,0,21,0,54.97873129998334,,54.94623890006915,5,54.97873129998334,54.97873129998334,0.022565599996596575,57.36549840006046,[0.4824074074074074],[-0.15555555555555556],[1],[0],[0],[2.3972926000133157],['target'],480720,001,2024-10-10_22h37.42.315,Task3_VisualSearch,2024.1.5,None,2024-10-10 22h37.54.502637 +0530,
22,0,22,0,57.42316690005828,,57.3706538999686,10,57.42316690005828,57.42316690005828,0.034394699963741004,58.93430439999793,[0.17777777777777778],[0.20185185185185187],[1],[0],[0],[1.5299674000125378],['target'],480720,001,2024-10-10_22h37.42.315,Task3_VisualSearch,2024.1.5,None,2024-10-10 22h37.54.502637 +0530,
23,0,23,0,58.96498509997036,,58.938676099991426,5,58.96498509997036,58.96498509997036,0.015775199979543686,60.3815921000205,[0.21666666666666667],[0.1388888888888889],[1],[0],[0],[1.4275789000093937],['target'],480720,001,2024-10-10_22h37.42.315,Task3_VisualSearch,2024.1.5,None,2024-10-10 22h37.54.502637 +0530,
24,0,24,0,60.467242300044745,,60.38691390003078,10,60.467242300044745,60.467242300044745,0.05947009997908026,63.348964800010435,[-0.39537037037037037],[-0.4287037037037037],[1],[0],[0],[2.903338500065729],['target'],480720,001,2024-10-10_22h37.42.315,Task3_VisualSearch,2024.1.5,None,2024-10-10 22h37.54.502637 +0530,
25,0,25,0,63.37820619996637,,63.35228890005965,5,63.37820619996637,63.37820619996637,0.01513299997895956,64.34877090004738,[0.3101851851851852],[-0.41759259259259257],[1],[0],[0],[0.9813698000507429],[],480720,001,2024-10-10_22h37.42.315,Task3_VisualSearch,2024.1.5,None,2024-10-10 22h37.54.502637 +0530,
26,0,26,0,64.38711030001286,,64.35459800006356,5,64.38711030001286,64.38711030001286,0.019707200000993907,66.7811910000164,[0.08611111111111111],[0.030555555555555555],[1],[0],[0],[2.4074400999816135],['target'],480720,001,2024-10-10_22h37.42.315,Task3_VisualSearch,2024.1.5,None,2024-10-10 22h37.54.502637 +0530,
27,0,27,0,66.85902279999573,,66.78697230003309,10,66.85902279999573,66.85902279999573,0.05483390006702393,68.54776680003852,[-0.2101851851851852],[-0.19166666666666668],[1],[0],[0],[1.7065486999927089],['target'],480720,001,2024-10-10_22h37.42.315,Task3_VisualSearch,2024.1.5,None,2024-10-10 22h37.54.502637 +0530,
28,0,28,0,68.57612019998487,,68.55151899997145,5,68.57612019998487,68.57612019998487,0.014978800085373223,70.93136390007567,[0.2916666666666667],[0.1824074074074074],[1],[0],[0],[2.365171100012958],['target'],480720,001,2024-10-10_22h37.42.315,Task3_VisualSearch,2024.1.5,None,2024-10-10 22h37.54.502637 +0530,
29,0,29,0,70.98397359997034,,70.93721070000902,10,70.98397359997034,70.98397359997034,0.029636300052516162,73.31378760002553,[-0.15],[0.12777777777777777],[1],[0],[0],[2.3476217000279576],['target'],480720,001,2024-10-10_22h37.42.315,Task3_VisualSearch,2024.1.5,None,2024-10-10 22h37.54.502637 +0530,
30,0,30,0,73.3841760000214,,73.31750910007395,10,73.3841760000214,73.3841760000214,0.048907199990935624,75.39828439999837,[0.35185185185185186],[0.2675925925925926],[1],[0],[0],[2.032177900080569],['target'],480720,001,2024-10-10_22h37.42.315,Task3_VisualSearch,2024.1.5,None,2024-10-10 22h37.54.502637 +0530,
31,0,31,0,75.45377670007292,,75.40186450001784,5,75.45377670007292,75.45377670007292,0.04089349997229874,78.51425650005694,[-0.3314814814814815],[0.4462962962962963],[1],[0],[0],[3.0718304000329226],['target'],480720,001,2024-10-10_22h37.42.315,Task3_VisualSearch,2024.1.5,None,2024-10-10 22h37.54.502637 +0530,
32,0,32,0,78.54661139997188,,78.51919060002547,5,78.54661139997188,78.54661139997188,0.016891399980522692,80.04698560002726,[0.4212962962962963],[0.3175925925925926],[1],[0],[0],[1.511411500046961],['target'],480720,001,2024-10-10_22h37.42.315,Task3_VisualSearch,2024.1.5,None,2024-10-10 22h37.54.502637 +0530,
33,0,33,0,80.07936360000167,,80.05203520006035,5,80.07936360000167,80.07936360000167,0.01682520005851984,81.86498890002258,[0.08148148148148149],[-0.2777777777777778],[1],[0],[0],[1.7963748999172822],['target'],480720,001,2024-10-10_22h37.42.315,Task3_VisualSearch,2024.1.5,None,2024-10-10 22h37.54.502637 +0530,
34,0,34,0,81.95065630006138,,81.87297729996499,10,81.95065630006138,81.95065630006138,0.056012699962593615,83.6140206999844,[0.29444444444444445],[0.07685185185185185],[1],[0],[0],[1.6863448000513017],['target'],480720,001,2024-10-10_22h37.42.315,Task3_VisualSearch,2024.1.5,None,2024-10-10 22h37.54.502637 +0530,
35,0,35,0,83.64171120000537,,83.61775840003975,5,83.64171120000537,83.64171120000537,0.015010899980552495,84.74749960005283,[0.29444444444444445],[-0.05],[1],[0],[0],[1.1149918999290094],['target'],480720,001,2024-10-10_22h37.42.315,Task3_VisualSearch,2024.1.5,None,2024-10-10 22h37.54.502637 +0530,
36,0,36,0,84.78200310003012,,84.7530394999776,5,84.78200310003012,84.78200310003012,0.01856310002040118,86.53007960005198,[-0.2537037037037037],[-0.018518518518518517],[1],[0],[0],[1.7592009999789298],['target'],480720,001,2024-10-10_22h37.42.315,Task3_VisualSearch,2024.1.5,None,2024-10-10 22h37.54.502637 +0530,
37,0,37,0,86.56217110005673,,86.53519730002154,5,86.56217110005673,86.56217110005673,0.0168163999915123,87.39673410006799,[-0.17962962962962964],[-0.006481481481481481],[1],[0],[0],[0.8453013000544161],['target'],480720,001,2024-10-10_22h37.42.315,Task3_VisualSearch,2024.1.5,None,2024-10-10 22h37.54.502637 +0530,
38,0,38,0,87.44934449996799,,87.4023246000288,10,87.44934449996799,87.44934449996799,0.029477700009010732,89.33328070002608,[-0.23425925925925925],[0.08981481481481482],[1],[0],[0],[1.9018697999417782],['target'],480720,001,2024-10-10_22h37.42.315,Task3_VisualSearch,2024.1.5,None,2024-10-10 22h37.54.502637 +0530,
39,0,39,0,89.40849150007125,,89.34193540003616,5,89.40849150007125,89.40849150007125,0.04992730007506907,91.33140789996833,[0.20277777777777778],[-0.23055555555555557],[1],[0],[0],[1.9408934999955818],['target'],480720,001,2024-10-10_22h37.42.315,Task3_VisualSearch,2024.1.5,None,2024-10-10 22h37.54.502637 +0530,
40,0,40,0,91.38278700003866,,91.33596549998038,10,91.38278700003866,91.38278700003866,0.030414100037887692,93.91283699998166,[0.01574074074074074],[-0.09814814814814815],[1],[0],[0],[2.5470575999934226],['target'],480720,001,2024-10-10_22h37.42.315,Task3_VisualSearch,2024.1.5,None,2024-10-10 22h37.54.502637 +0530,
41,0,41,0,93.98350770003162,,93.91674400004558,10,93.98350770003162,93.98350770003162,0.028240300016477704,96.08059859997593,[-0.44907407407407407],[-0.2972222222222222],[1],[0],[0],[2.1360990999964997],['target'],480720,001,2024-10-10_22h37.42.315,Task3_VisualSearch,2024.1.5,None,2024-10-10 22h37.54.502637 +0530,
42,0,42,0,96.11014730005991,,96.08442430000287,5,96.11014730005991,96.11014730005991,0.014853799948468804,97.51320509996731,[-0.40185185185185185],[0.18888888888888888],[1],[0],[0],[1.4142519000452012],['target'],480720,001,2024-10-10_22h37.42.315,Task3_VisualSearch,2024.1.5,None,2024-10-10 22h37.54.502637 +0530,
43,0,43,0,97.56645649997517,,97.51822940004058,10,97.56645649997517,97.56645649997517,0.029993400094099343,100.46236370003317,[0.4361111111111111],[0.31574074074074077],[1],[0],[0],[2.9147819000063464],['target'],480720,001,2024-10-10_22h37.42.315,Task3_VisualSearch,2024.1.5,None,2024-10-10 22h37.54.502637 +0530,
44,0,44,0,100.55647860001773,,100.46596020006109,10,100.55647860001773,100.55647860001773,0.06340570002794266,102.74613340001088,[-0.34629629629629627],[-0.12037037037037036],[1],[0],[0],[2.217113499995321],['target'],480720,001,2024-10-10_22h37.42.315,Task3_VisualSearch,2024.1.5,None,2024-10-10 22h37.54.502637 +0530,
45,0,45,0,102.77868210000452,,102.74991560005583,5,102.77868210000452,102.77868210000452,0.017637599958106875,104.39670180005487,[-0.04537037037037037],[0.21388888888888888],[1],[0],[0],[1.6295310000423342],['target'],480720,001,2024-10-10_22h37.42.315,Task3_VisualSearch,2024.1.5,None,2024-10-10 22h37.54.502637 +0530,
46,0,46,0,104.47186890000012,,104.40139430004638,10,104.47186890000012,104.47186890000012,0.05274959991220385,105.57919359998778,[0.046296296296296294],[0.4722222222222222],[1],[0],[0],[1.1256853999802843],['target'],480720,001,2024-10-10_22h37.42.315,Task3_VisualSearch,2024.1.5,None,2024-10-10 22h37.54.502637 +0530,
47,0,47,0,105.60813359997701,,105.58301140007097,5,105.60813359997701,105.60813359997701,0.01454309991095215,107.08055980002973,[0.46944444444444444],[0.41203703703703703],[1],[0],[0],[1.4830453000031412],['target'],480720,001,2024-10-10_22h37.42.315,Task3_VisualSearch,2024.1.5,None,2024-10-10 22h37.54.502637 +0530,
48,0,48,0,107.20476980006788,,107.0882161000045,10,107.20476980006788,107.20476980006788,0.08579719997942448,108.7803917999845,[0.38055555555555554],[0.28703703703703703],[1],[0],[0],[1.6074611999792978],['target'],480720,001,2024-10-10_22h37.42.315,Task3_VisualSearch,2024.1.5,None,2024-10-10 22h37.54.502637 +0530,
49,0,49,0,108.82134719996247,,108.78847110003699,5,108.82134719996247,108.82134719996247,0.023236600100062788,111.08148010005243,[-0.29074074074074074],[0.06018518518518518],[1],[0],[0],[2.270842499914579],['target'],480720,001,2024-10-10_22h37.42.315,Task3_VisualSearch,2024.1.5,None,2024-10-10 22h37.54.502637 +0530,
50,0,50,0,111.19384409999475,,111.08701550005935,10,111.19384409999475,111.19384409999475,0.08018159994389862,112.47895070002414,[0.06574074074074074],[0.11388888888888889],[1],[0],[0],[1.3125627000117674],['target'],480720,001,2024-10-10_22h37.42.315,Task3_VisualSearch,2024.1.5,None,2024-10-10 22h37.54.502637 +0530,
51,0,51,0,112.54232700006105,,112.48242020001635,5,112.54232700006105,112.54232700006105,0.041633800021372736,113.94981130002998,[-0.225],[0.06759259259259259],[1],[0],[0],[1.4259706999873742],['target'],480720,001,2024-10-10_22h37.42.315,Task3_VisualSearch,2024.1.5,None,2024-10-10 22h37.54.502637 +0530,
52,0,52,0,114.0239675999619,,113.95558499998879,10,114.0239675999619,114.0239675999619,0.031178300036117435,116.37055760005023,[-0.3888888888888889],[-0.4101851851851852],[1],[0],[0],[2.384451999911107],['target'],480720,001,2024-10-10_22h37.42.315,Task3_VisualSearch,2024.1.5,None,2024-10-10 22h37.54.502637 +0530,
53,0,53,0,116.4217728000367,,116.37402129999828,10,116.4217728000367,116.4217728000367,0.030414800043217838,120.74501040007453,[-0.03148148148148148],[0.47129629629629627],[1],[0],[0],[4.340866300044581],['target'],480720,001,2024-10-10_22h37.42.315,Task3_VisualSearch,2024.1.5,None,2024-10-10 22h37.54.502637 +0530,
54,0,54,0,120.7740388000384,,120.74914239998907,5,120.7740388000384,120.7740388000384,0.015295099932700396,123.36228160001338,[-0.3148148148148148],[-0.3824074074074074],[1],[0],[0],[2.598206300055608],['target'],480720,001,2024-10-10_22h37.42.315,Task3_VisualSearch,2024.1.5,None,2024-10-10 22h37.54.502637 +0530,
55,0,55,0,123.44469230005052,,123.36773830000311,10,123.44469230005052,123.44469230005052,0.05862549995072186,126.07811680005398,[-0.3314814814814815],[0.2564814814814815],[1],[0],[0],[2.652573599945754],['target'],480720,001,2024-10-10_22h37.42.315,Task3_VisualSearch,2024.1.5,None,2024-10-10 22h37.54.502637 +0530,
56,0,56,0,126.1452790000476,,126.08151400007773,10,126.1452790000476,126.1452790000476,0.026379600050859153,127.67792469996493,[0.06574074074074074],[0.26296296296296295],[1],[0],[0],[1.5703591000055894],['target'],480720,001,2024-10-10_22h37.42.315,Task3_VisualSearch,2024.1.5,None,2024-10-10 22h37.54.502637 +0530,
57,0,57,0,127.7453274000436,,127.68141219997779,10,127.7453274000436,127.7453274000436,0.04627799999434501,129.99294580006972,[-0.23425925925925925],[-0.25555555555555554],[1],[0],[0],[2.2651214000070468],['target'],480720,001,2024-10-10_22h37.42.315,Task3_VisualSearch,2024.1.5,None,2024-10-10 22h37.54.502637 +0530,
58,0,58,0,130.12187879998237,,130.00070360000245,10,130.12187879998237,130.12187879998237,0.08598340000025928,131.80054369999561,[0.44166666666666665],[-0.044444444444444446],[1],[0],[0],[1.7146671999944374],['target'],480720,001,2024-10-10_22h37.42.315,Task3_VisualSearch,2024.1.5,None,2024-10-10 22h37.54.502637 +0530,
59,0,59,0,131.8916056000162,,131.81156000006013,10,131.8916056000162,131.8916056000162,0.061270999955013394,134.68575040006544,[0.28055555555555556],[-0.41759259259259257],[1],[0],[0],[2.814211199991405],['target'],480720,001,2024-10-10_22h37.42.315,Task3_VisualSearch,2024.1.5,None,2024-10-10 22h37.54.502637 +0530,
60,0,60,0,134.77281860006042,,134.69421169999987,10,134.77281860006042,134.77281860006042,0.06229949998669326,137.9121001000749,[-0.3101851851851852],[-0.3138888888888889],[1],[0],[0],[3.1567527999868616],['target'],480720,001,2024-10-10_22h37.42.315,Task3_VisualSearch,2024.1.5,None,2024-10-10 22h37.54.502637 +0530,
61,0,61,0,137.98695379996207,,137.91651770006865,10,137.98695379996207,137.98695379996207,0.05300099996384233,140.19421270000748,[-0.4703703703703704],[-0.412962962962963],[1],[0],[0],[2.225293399998918],['target'],480720,001,2024-10-10_22h37.42.315,Task3_VisualSearch,2024.1.5,None,2024-10-10 22h37.54.502637 +0530,
62,0,62,0,140.24354779999703,,140.19758989999536,10,140.24354779999703,140.24354779999703,0.028983799973502755,143.39412359998096,[-0.387037037037037],[-0.47314814814814815],[1],[0],[0],[3.1678831999888644],['target'],480720,001,2024-10-10_22h37.42.315,Task3_VisualSearch,2024.1.5,None,2024-10-10 22h37.54.502637 +0530,
63,0,63,0,143.44659770000726,,143.39786809997167,10,143.44659770000726,143.44659770000726,0.029945500078611076,145.72775820002425,[0.412962962962963],[0.23796296296296296],[1],[0],[0],[2.3003533999435604],['target'],480720,001,2024-10-10_22h37.42.315,Task3_VisualSearch,2024.1.5,None,2024-10-10 22h37.54.502637 +0530,
64,0,64,0,145.7559894999722,,145.73121500003617,5,145.7559894999722,145.7559894999722,0.01448539993725717,147.9610287999967,[0.025],[0.3],[1],[0],[0],[2.215606900048442],['target'],480720,001,2024-10-10_22h37.42.315,Task3_VisualSearch,2024.1.5,None,2024-10-10 22h37.54.502637 +0530,
65,0,65,0,147.99228650005534,,147.96602890000213,5,147.99228650005534,147.99228650005534,0.0164427999407053,149.82721849996597,[-0.11296296296296296],[0.2796296296296296],[1],[0],[0],[1.8452415999490768],['target'],480720,001,2024-10-10_22h37.42.315,Task3_VisualSearch,2024.1.5,None,2024-10-10 22h37.54.502637 +0530,
66,0,66,0,149.90196090005338,,149.83230350003578,10,149.90196090005338,149.90196090005338,0.051323599996976554,152.5776923999656,[0.42592592592592593],[0.3175925925925926],[1],[0],[0],[2.694457500008866],['target'],480720,001,2024-10-10_22h37.42.315,Task3_VisualSearch,2024.1.5,None,2024-10-10 22h37.54.502637 +0530,
67,0,67,0,152.61085319996346,,152.58351470006164,5,152.61085319996346,152.61085319996346,0.018301300005987287,154.1629073000513,[-0.15648148148148147],[0.41203703703703703],[1],[0],[0],[1.5615158999571577],['target'],480720,001,2024-10-10_22h37.42.315,Task3_VisualSearch,2024.1.5,None,2024-10-10 22h37.54.502637 +0530,
68,0,68,0,154.2508524999721,,154.17107639997266,10,154.2508524999721,154.2508524999721,0.05304919998161495,156.0228258999996,[-0.1574074074074074],[0.2898148148148148],[1],[0],[0],[1.8000937000615522],['target'],480720,001,2024-10-10_22h37.42.315,Task3_VisualSearch,2024.1.5,None,2024-10-10 22h37.54.502637 +0530,
69,0,69,0,156.0539703000104,,156.0270517000463,5,156.0539703000104,156.0539703000104,0.01729790004901588,156.4606397000607,[-0.17777777777777778],[0.24444444444444444],[1],[0],[0],[0.4167703000130132],[],480720,001,2024-10-10_22h37.42.315,Task3_VisualSearch,2024.1.5,None,2024-10-10 22h37.54.502637 +0530,
70,0,70,0,156.5221642999677,,156.46603320003487,5,156.5221642999677,156.5221642999677,0.04048610001336783,159.0104624000378,[0.009259259259259259],[-0.362962962962963],[1],[0],[0],[2.5046723999548703],['target'],480720,001,2024-10-10_22h37.42.315,Task3_VisualSearch,2024.1.5,None,2024-10-10 22h37.54.502637 +0530,
71,0,71,0,159.06110350007657,,159.01522230007686,10,159.06110350007657,159.06110350007657,0.028848699992522597,161.26568209996913,[0.17962962962962964],[-0.462037037037037],[1],[0],[0],[2.222032699966803],['target'],480720,001,2024-10-10_22h37.42.315,Task3_VisualSearch,2024.1.5,None,2024-10-10 22h37.54.502637 +0530,
72,0,72,0,161.33100060001016,,161.27224339998793,10,161.33100060001016,161.33100060001016,0.03770960005931556,165.0678967999993,[-0.037037037037037035],[0.16018518518518518],[1],[0],[0],[3.7591137000126764],['target'],480720,001,2024-10-10_22h37.42.315,Task3_VisualSearch,2024.1.5,None,2024-10-10 22h37.54.502637 +0530,
73,0,73,0,165.1267617000267,,165.07600230001844,5,165.1267617000267,165.1267617000267,0.03505900001619011,166.1775622999994,[-0.08333333333333333],[0.287962962962963],[1],[0],[0],[1.0674757999368012],['target'],480720,001,2024-10-10_22h37.42.315,Task3_VisualSearch,2024.1.5,None,2024-10-10 22h37.54.502637 +0530,
74,0,74,0,166.23116179998033,,166.18243010004517,10,166.23116179998033,166.23116179998033,0.031547100050374866,168.87330880004447,[0.05],[-0.2351851851851852],[1],[0],[0],[2.6593467999482527],['target'],480720,001,2024-10-10_22h37.42.315,Task3_VisualSearch,2024.1.5,None,2024-10-10 22h37.54.502637 +0530,
75,0,75,0,168.96238210005686,,168.88581770006567,10,168.96238210005686,168.96238210005686,0.047064100042916834,170.1951451000059,[-0.1648148148148148],[0.15185185185185185],[1],[0],[0],[1.2641324000433087],['target'],480720,001,2024-10-10_22h37.42.315,Task3_VisualSearch,2024.1.5,None,2024-10-10 22h37.54.502637 +0530,
76,0,76,0,170.25261510000564,,170.20007680007257,5,170.25261510000564,170.25261510000564,0.04072799999266863,171.6436216000002,[-0.06296296296296296],[0.3055555555555556],[1],[0],[0],[1.403420399990864],['target'],480720,001,2024-10-10_22h37.42.315,Task3_VisualSearch,2024.1.5,None,2024-10-10 22h37.54.502637 +0530,
77,0,77,0,171.72808270005044,,171.64884799998254,10,171.72808270005044,171.72808270005044,0.05758679995778948,172.19035910000093,[-0.09351851851851851],[0.07592592592592592],[1],[0],[0],[0.4845132000045851],[],480720,001,2024-10-10_22h37.42.315,Task3_VisualSearch,2024.1.5,None,2024-10-10 22h37.54.502637 +0530,
78,0,78,0,172.2402502000332,,172.19364910002332,10,172.2402502000332,172.2402502000332,0.028344999998807907,173.44263379997574,[-0.15092592592592594],[-0.03518518518518519],[1],[0],[0],[1.2209203999955207],['target'],480720,001,2024-10-10_22h37.42.315,Task3_VisualSearch,2024.1.5,None,2024-10-10 22h37.54.502637 +0530,
79,0,79,0,173.46998060005717,,173.44622990000062,5,173.46998060005717,173.46998060005717,0.014665300026535988,175.64663890004158,[-0.07037037037037037],[0.4666666666666667],[1],[0],[0],[2.1860036000143737],['target'],480720,001,2024-10-10_22h37.42.315,Task3_VisualSearch,2024.1.5,None,2024-10-10 22h37.54.502637 +0530,
80,0,80,0,175.69894340005703,,175.65287860005628,5,175.69894340005703,175.69894340005703,0.03365290001966059,178.49272290000226,[-0.3175925925925926],[0.4648148148148148],[1],[0],[0],[2.8068688000785187],['target'],480720,001,2024-10-10_22h37.42.315,Task3_VisualSearch,2024.1.5,None,2024-10-10 22h37.54.502637 +0530,
81,0,81,0,178.56052210007329,,178.49748460005503,5,178.56052210007329,178.56052210007329,0.024803900043480098,180.82619729998987,[-0.009259259259259259],[-0.058333333333333334],[1],[0],[0],[2.304272699984722],['target'],480720,001,2024-10-10_22h37.42.315,Task3_VisualSearch,2024.1.5,None,2024-10-10 22h37.54.502637 +0530,
82,0,82,0,180.86170090001542,,180.8333844000008,5,180.86170090001542,180.86170090001542,0.019882200052961707,183.24449489999097,[0.3333333333333333],[0.4527777777777778],[1],[0],[0],[2.392094500013627],['target'],480720,001,2024-10-10_22h37.42.315,Task3_VisualSearch,2024.1.5,None,2024-10-10 22h37.54.502637 +0530,
83,0,83,0,183.32708429999184,,183.2484443000285,10,183.32708429999184,183.32708429999184,0.05796190002001822,185.72584960004315,[-0.34629629629629627],[0.16296296296296298],[1],[0],[0],[2.4197287000715733],['target'],480720,001,2024-10-10_22h37.42.315,Task3_VisualSearch,2024.1.5,None,2024-10-10 22h37.54.502637 +0530,
84,0,84,0,185.8063007000601,,185.72991260001436,10,185.8063007000601,185.8063007000601,0.04122979997191578,191.41180890006945,[-0.11944444444444445],[0.47685185185185186],[1],[0],[0],[5.640884199994616],['target'],480720,001,2024-10-10_22h37.42.315,Task3_VisualSearch,2024.1.5,None,2024-10-10 22h37.54.502637 +0530,
85,0,85,0,191.4618097000057,,191.41636040003505,10,191.4618097000057,191.4618097000057,0.029090099968016148,193.1919734000694,[-0.35185185185185186],[0.25833333333333336],[1],[0],[0],[1.7468263000482693],['target'],480720,001,2024-10-10_22h37.42.315,Task3_VisualSearch,2024.1.5,None,2024-10-10 22h37.54.502637 +0530,
86,0,86,0,193.2723123000469,,193.19605240004603,10,193.2723123000469,193.2723123000469,0.05965849990025163,195.6086972000776,[-0.32314814814814813],[-0.12407407407407407],[1],[0],[0],[2.353189400047995],['target'],480720,001,2024-10-10_22h37.42.315,Task3_VisualSearch,2024.1.5,None,2024-10-10 22h37.54.502637 +0530,
87,0,87,0,195.6411986000603,,195.61377910000738,5,195.6411986000603,195.6411986000603,0.016573800006881356,197.42562130000442,[0.19907407407407407],[0.1259259259259259],[1],[0],[0],[1.7955756000010297],['target'],480720,001,2024-10-10_22h37.42.315,Task3_VisualSearch,2024.1.5,None,2024-10-10 22h37.54.502637 +0530,
88,0,88,0,197.4999950999627,,197.4316678000614,5,197.4999950999627,197.4999950999627,0.050696599995717406,199.20853820000775,[0.39351851851851855],[-0.2351851851851852],[1],[0],[0],[1.726666699978523],['target'],480720,001,2024-10-10_22h37.42.315,Task3_VisualSearch,2024.1.5,None,2024-10-10 22h37.54.502637 +0530,
89,0,89,0,199.2401865000138,,199.214101199992,5,199.2401865000138,199.2401865000138,0.017418400035239756,202.00850050000008,[0.175],[0.12129629629629629],[1],[0],[0],[2.777467399952002],['target'],480720,001,2024-10-10_22h37.42.315,Task3_VisualSearch,2024.1.5,None,2024-10-10 22h37.54.502637 +0530,
90,0,90,0,202.0620686999755,,202.0142985000275,5,202.0620686999755,202.0620686999755,0.01736030005849898,203.52493459999096,[0.38333333333333336],[0.30833333333333335],[1],[0],[0],[1.4938123000320047],['target'],480720,001,2024-10-10_22h37.42.315,Task3_VisualSearch,2024.1.5,None,2024-10-10 22h37.54.502637 +0530,
91,0,91,0,203.59083010000177,,203.53151750005782,10,203.59083010000177,203.59083010000177,0.043527300003916025,205.15019559999928,[-0.37407407407407406],[0.2074074074074074],[1],[0],[0],[1.5760653999168426],['target'],480720,001,2024-10-10_22h37.42.315,Task3_VisualSearch,2024.1.5,None,2024-10-10 22h37.54.502637 +0530,
92,0,92,0,205.18187390000094,,205.15552290005144,5,205.18187390000094,205.18187390000094,0.01652419997844845,206.60827840003185,[0.019444444444444445],[0.4083333333333333],[1],[0],[0],[1.4368094999808818],['target'],480720,001,2024-10-10_22h37.42.315,Task3_VisualSearch,2024.1.5,None,2024-10-10 22h37.54.502637 +0530,
93,0,93,0,206.64135120005812,,206.6137568000704,5,206.64135120005812,206.64135120005812,0.016707499977201223,208.5744612000417,[0.08148148148148149],[-0.4685185185185185],[1],[0],[0],[1.9446531001012772],['target'],480720,001,2024-10-10_22h37.42.315,Task3_VisualSearch,2024.1.5,None,2024-10-10 22h37.54.502637 +0530,
94,0,94,0,208.63013559998944,,208.58137040003203,10,208.63013559998944,208.63013559998944,0.031277399975806475,210.52444199996535,[-0.3055555555555556],[0.3277777777777778],[1],[0],[0],[1.912216700031422],['target'],480720,001,2024-10-10_22h37.42.315,Task3_VisualSearch,2024.1.5,None,2024-10-10 22h37.54.502637 +0530,
95,0,95,0,210.61645229998976,,210.52855659998022,10,210.61645229998976,210.61645229998976,0.06106669991277158,212.60852670005988,[-0.1259259259259259],[0.19166666666666668],[1],[0],[0],[2.0189610000234097],['target'],480720,001,2024-10-10_22h37.42.315,Task3_VisualSearch,2024.1.5,None,2024-10-10 22h37.54.502637 +0530,
96,0,96,0,212.6668195000384,,212.6161618999904,5,212.6668195000384,212.6668195000384,0.03274059994146228,215.27426690002903,[-0.21851851851851853],[-0.2462962962962963],[1],[0],[0],[2.626472899923101],['target'],480720,001,2024-10-10_22h37.42.315,Task3_VisualSearch,2024.1.5,None,2024-10-10 22h37.54.502637 +0530,
97,0,97,0,215.3737938000122,,215.28151940007228,10,215.3737938000122,215.3737938000122,0.07577049999963492,217.28045640001073,[-0.3037037037037037],[-0.05925925925925926],[1],[0],[0],[1.9238647999009117],['target'],480720,001,2024-10-10_22h37.42.315,Task3_VisualSearch,2024.1.5,None,2024-10-10 22h37.54.502637 +0530,
98,0,98,0,217.31294360000174,,217.28604180004913,5,217.31294360000174,217.31294360000174,0.01706089999061078,218.80779760004953,[0.18888888888888888],[-0.32222222222222224],[1],[0],[0],[1.505191000062041],['target'],480720,001,2024-10-10_22h37.42.315,Task3_VisualSearch,2024.1.5,None,2024-10-10 22h37.54.502637 +0530,
99,0,99,0,218.84875160001684,,218.81422709999606,5,218.84875160001684,218.84875160001684,0.019444199977442622,220.5416979000438,[-0.4203703703703704],[-0.1398148148148148],[1],[0],[0],[1.7085568000329658],['target'],480720,001,2024-10-10_22h37.42.315,Task3_VisualSearch,2024.1.5,None,2024-10-10 22h37.54.502637 +0530,
100,0,100,0,220.60059300006833,,220.54927920002956,10,220.60059300006833,220.60059300006833,0.03555709996726364,221.84093549998943,[0.046296296296296294],[0.4009259259259259],[1],[0],[0],[1.256991000031121],['target'],480720,001,2024-10-10_22h37.42.315,Task3_VisualSearch,2024.1.5,None,2024-10-10 22h37.54.502637 +0530,
101,0,101,0,221.90209190000314,,221.84849850006867,10,221.90209190000314,221.90209190000314,0.038392100017517805,225.67762089997996,[0.4777777777777778],[0.4787037037037037],[1],[0],[0],[3.791912000044249],['target'],480720,001,2024-10-10_22h37.42.315,Task3_VisualSearch,2024.1.5,None,2024-10-10 22h37.54.502637 +0530,
102,0,102,0,225.70559260004666,,225.680795900058,5,225.70559260004666,225.70559260004666,0.014064299990423024,227.97381780005526,[-0.43703703703703706],[0.019444444444444445],[1],[0],[0],[2.278841600054875],['target'],480720,001,2024-10-10_22h37.42.315,Task3_VisualSearch,2024.1.5,None,2024-10-10 22h37.54.502637 +0530,
103,0,103,0,228.07001660007518,,227.97973620006815,10,228.07001660007518,228.07001660007518,0.04056579992175102,230.6402699999744,[-0.040740740740740744],[-0.1962962962962963],[1],[0],[0],[2.620545999961905],['target'],480720,001,2024-10-10_22h37.42.315,Task3_VisualSearch,2024.1.5,None,2024-10-10 22h37.54.502637 +0530,
104,0,104,0,230.75084640004206,,230.6452556999866,10,230.75084640004206,230.75084640004206,0.07792169996537268,232.65177140000742,[-0.16018518518518518],[0.27037037037037037],[1],[0],[0],[1.929028799990192],['target'],480720,001,2024-10-10_22h37.42.315,Task3_VisualSearch,2024.1.5,None,2024-10-10 22h37.54.502637 +0530,
105,0,105,0,232.684463600046,,232.65769749996252,5,232.684463600046,232.684463600046,0.01663949992507696,234.00693779997528,[0.4462962962962963],[-0.1712962962962963],[1],[0],[0],[1.3329697999870405],['target'],480720,001,2024-10-10_22h37.42.315,Task3_VisualSearch,2024.1.5,None,2024-10-10 22h37.54.502637 +0530,
106,0,106,0,234.04083179996815,,234.01287790003698,5,234.04083179996815,234.04083179996815,0.017532299971207976,236.14153250004165,[-0.005555555555555556],[0.1537037037037037],[1],[0],[0],[2.1118766999570653],['target'],480720,001,2024-10-10_22h37.42.315,Task3_VisualSearch,2024.1.5,None,2024-10-10 22h37.54.502637 +0530,
107,0,107,0,236.18638920004014,,236.14835140004288,5,236.18638920004014,236.18638920004014,0.027681799954734743,238.7567600000184,[0.09444444444444444],[0.41944444444444445],[1],[0],[0],[2.5815817000111565],['target'],480720,001,2024-10-10_22h37.42.315,Task3_VisualSearch,2024.1.5,None,2024-10-10 22h37.54.502637 +0530,
108,0,108,0,238.8068518000655,,238.76281069999095,5,238.8068518000655,238.8068518000655,0.03213159996084869,240.87384030001704,[-0.20185185185185187],[0.29907407407407405],[1],[0],[0],[2.0801761000184342],['target'],480720,001,2024-10-10_22h37.42.315,Task3_VisualSearch,2024.1.5,None,2024-10-10 22h37.54.502637 +0530,
109,0,109,0,240.92270049999934,,240.87677269999404,10,240.92270049999934,240.92270049999934,0.027422199957072735,242.522815000033,[0.06481481481481481],[-0.05185185185185185],[1],[0],[0],[1.6186618000501767],['target'],480720,001,2024-10-10_22h37.42.315,Task3_VisualSearch,2024.1.5,None,2024-10-10 22h37.54.502637 +0530,
110,0,110,0,242.5918608000502,,242.5268293999834,10,242.5918608000502,242.5918608000502,0.04046760010533035,244.55630759999622,[0.5046296296296297],[0.47314814814814815],[1],[0],[0],[1.989321400062181],['target'],480720,001,2024-10-10_22h37.42.315,Task3_VisualSearch,2024.1.5,None,2024-10-10 22h37.54.502637 +0530,
111,0,111,0,244.58617390005384,,244.5604848000221,5,244.58617390005384,244.58617390005384,0.015140900039114058,246.85640310007147,[0.3537037037037037],[-0.20925925925925926],[1],[0],[0],[2.280923300073482],['target'],480720,001,2024-10-10_22h37.42.315,Task3_VisualSearch,2024.1.5,None,2024-10-10 22h37.54.502637 +0530,
112,0,112,0,246.93575770000461,,246.86263200000394,10,246.93575770000461,246.93575770000461,0.04346700001042336,248.89226620004047,[0.11388888888888889],[-0.04814814814814815],[1],[0],[0],[1.9868081000167876],['target'],480720,001,2024-10-10_22h37.42.315,Task3_VisualSearch,2024.1.5,None,2024-10-10 22h37.54.502637 +0530,
113,0,113,0,248.95481739996467,,248.89699659997132,10,248.95481739996467,248.95481739996467,0.034592100069858134,252.0894043999724,[0.48148148148148145],[-0.3194444444444444],[1],[0],[0],[3.1582848000107333],['target'],480720,001,2024-10-10_22h37.42.315,Task3_VisualSearch,2024.1.5,None,2024-10-10 22h37.54.502637 +0530,
114,0,114,0,252.1342055000132,,252.09314680006355,10,252.1342055000132,252.1342055000132,0.026988200028426945,254.19107339996845,[0.1574074074074074],[0.3435185185185185],[1],[0],[0],[2.0711958999745548],['target'],480720,001,2024-10-10_22h37.42.315,Task3_VisualSearch,2024.1.5,None,2024-10-10 22h37.54.502637 +0530,
115,0,115,0,254.2362906000344,,254.19457110005897,10,254.2362906000344,254.2362906000344,0.02699370007030666,255.94048840005416,[-0.45555555555555555],[-0.17592592592592593],[1],[0],[0],[1.7188976999605075],['target'],480720,001,2024-10-10_22h37.42.315,Task3_VisualSearch,2024.1.5,None,2024-10-10 22h37.54.502637 +0530,
116,0,116,0,255.97474019997753,,255.94490650005173,5,255.97474019997753,255.97474019997753,0.019566299975849688,258.02272720006295,[-0.27314814814814814],[0.38425925925925924],[1],[0],[0],[2.058433899888769],['target'],480720,001,2024-10-10_22h37.42.315,Task3_VisualSearch,2024.1.5,None,2024-10-10 22h37.54.502637 +0530,
117,0,117,0,258.0620020000497,,258.02951230003964,5,258.0620020000497,258.0620020000497,0.0225926999701187,259.7892564999638,[-0.075],[0.4962962962962963],[1],[0],[0],[1.7378895999863744],['target'],480720,001,2024-10-10_22h37.42.315,Task3_VisualSearch,2024.1.5,None,2024-10-10 22h37.54.502637 +0530,
118,0,118,0,259.82658160000574,,259.7952243000036,5,259.82658160000574,259.82658160000574,0.02226890006568283,262.6724210999673,[-0.44814814814814813],[-0.30185185185185187],[1],[0],[0],[2.855397699982859],['target'],480720,001,2024-10-10_22h37.42.315,Task3_VisualSearch,2024.1.5,None,2024-10-10 22h37.54.502637 +0530,
119,0,119,0,262.70542879996356,,262.67813500005286,5,262.70542879996356,262.70542879996356,0.01760600006673485,264.75650370004587,[0.43425925925925923],[0.27870370370370373],[1],[0],[0],[2.061303500086069],['target'],480720,001,2024-10-10_22h37.42.315,Task3_VisualSearch,2024.1.5,None,2024-10-10 22h37.54.502637 +0530,
120,0,120,0,264.814682599972,,264.7636287000496,5,264.814682599972,264.814682599972,0.034391900058835745,267.7721387000056,[-0.29074074074074074],[-0.4185185185185185],[1],[0],[0],[2.975098800030537],['target'],480720,001,2024-10-10_22h37.42.315,Task3_VisualSearch,2024.1.5,None,2024-10-10 22h37.54.502637 +0530,
121,0,121,0,267.81023090006784,,267.7792780000018,5,267.81023090006784,267.81023090006784,0.019426399958319962,269.0888215000741,[-0.33240740740740743],[0.06388888888888888],[1],[0],[0],[1.2908441999461502],['target'],480720,001,2024-10-10_22h37.42.315,Task3_VisualSearch,2024.1.5,None,2024-10-10 22h37.54.502637 +0530,
122,0,122,0,269.15686930005904,,269.09537570003886,10,269.15686930005904,269.15686930005904,0.03915139997843653,272.30954990000464,[0.48518518518518516],[-0.40925925925925927],[1],[0],[0],[3.175840900046751],['target'],480720,001,2024-10-10_22h37.42.315,Task3_VisualSearch,2024.1.5,None,2024-10-10 22h37.54.502637 +0530,
123,0,123,0,272.34257239999715,,272.31477930000983,5,272.34257239999715,272.34257239999715,0.016874499968253076,273.45572430000175,[0.23981481481481481],[-0.32685185185185184],[1],[0],[0],[1.1243058999534696],['target'],480720,001,2024-10-10_22h37.42.315,Task3_VisualSearch,2024.1.5,None,2024-10-10 22h37.54.502637 +0530,
124,0,124,0,273.51740929996595,,273.46336679998785,10,273.51740929996595,273.51740929996595,0.03845520003233105,276.4270919000264,[-0.04259259259259259],[-0.0787037037037037],[1],[0],[0],[2.926394500071183],['target'],480720,001,2024-10-10_22h37.42.315,Task3_VisualSearch,2024.1.5,None,2024-10-10 22h37.54.502637 +0530,
125,0,125,0,276.5317095000064,,276.43186350003816,10,276.5317095000064,276.5317095000064,0.06587370007764548,278.2734656999819,[-0.1425925925925926],[-0.07314814814814814],[1],[0],[0],[1.7759644000325352],['target'],480720,001,2024-10-10_22h37.42.315,Task3_VisualSearch,2024.1.5,None,2024-10-10 22h37.54.502637 +0530,
126,0,126,0,278.32933310000226,,278.2806748000439,10,278.32933310000226,278.32933310000226,0.03407270007301122,279.77118080004584,[-0.38425925925925924],[0.15555555555555556],[1],[0],[0],[1.4574004999594763],['target'],480720,001,2024-10-10_22h37.42.315,Task3_VisualSearch,2024.1.5,None,2024-10-10 22h37.54.502637 +0530,
127,0,127,0,279.80215080000926,,279.77562079997733,5,279.80215080000926,279.80215080000926,0.015375499962829053,281.0055478999857,[-0.20462962962962963],[-0.08796296296296297],[1],[0],[0],[1.2146899999352172],['target'],480720,001,2024-10-10_22h37.42.315,Task3_VisualSearch,2024.1.5,None,2024-10-10 22h37.54.502637 +0530,
128,0,128,0,281.0509735000087,,281.0131645000074,5,281.0509735000087,281.0509735000087,0.027523300028406084,282.80456600000616,[0.16296296296296298],[0.3351851851851852],[1],[0],[0],[1.7647420999128371],['target'],480720,001,2024-10-10_22h37.42.315,Task3_VisualSearch,2024.1.5,None,2024-10-10 22h37.54.502637 +0530,
129,0,129,0,282.86660910001956,,282.810771199991,5,282.86660910001956,282.86660910001956,0.0408100999193266,284.97149260004517,[0.19814814814814816],[-0.4305555555555556],[1],[0],[0],[2.1202110000886023],['target'],480720,001,2024-10-10_22h37.42.315,Task3_VisualSearch,2024.1.5,None,2024-10-10 22h37.54.502637 +0530,
130,0,130,0,285.02271910000127,,284.97942420002073,5,285.02271910000127,285.02271910000127,0.031144100008532405,286.437916600029,[-0.21296296296296297],[-0.48703703703703705],[1],[0],[0],[1.4283667000709102],['target'],480720,001,2024-10-10_22h37.42.315,Task3_VisualSearch,2024.1.5,None,2024-10-10 22h37.54.502637 +0530,
131,0,131,0,286.5016251000343,,286.44584040006157,10,286.5016251000343,286.5016251000343,0.03957149991765618,288.9599831000669,[-0.22962962962962963],[-0.012037037037037037],[1],[0],[0],[2.4755853000096977],['target'],480720,001,2024-10-10_22h37.42.315,Task3_VisualSearch,2024.1.5,None,2024-10-10 22h37.54.502637 +0530,
132,0,132,0,289.0057865000563,,288.96579260006547,5,289.0057865000563,289.0057865000563,0.03006149991415441,290.5247221000027,[-0.375],[0.2814814814814815],[1],[0],[0],[1.5293307000538334],['target'],480720,001,2024-10-10_22h37.42.315,Task3_VisualSearch,2024.1.5,None,2024-10-10 22h37.54.502637 +0530,
133,0,133,0,290.5701974000549,,290.5323302000761,5,290.5701974000549,290.5701974000549,0.02740830008406192,293.2399404000025,[0.020370370370370372],[0.38333333333333336],[1],[0],[0],[2.6812199000269175],['target'],480720,001,2024-10-10_22h37.42.315,Task3_VisualSearch,2024.1.5,None,2024-10-10 22h37.54.502637 +0530,
134,0,134,0,293.3047440999653,,293.2474116999656,10,293.3047440999653,293.3047440999653,0.04104250005912036,295.6373004000634,[0.2916666666666667],[0.1388888888888889],[1],[0],[0],[2.3497928000288084],['target'],480720,001,2024-10-10_22h37.42.315,Task3_VisualSearch,2024.1.5,None,2024-10-10 22h37.54.502637 +0530,
135,0,135,0,295.71081580000464,,295.64237390004564,10,295.71081580000464,295.71081580000464,0.05034620000515133,297.27100710000377,[0.4537037037037037],[0.2712962962962963],[1],[0],[0],[1.5788844000780955],['target'],480720,001,2024-10-10_22h37.42.315,Task3_VisualSearch,2024.1.5,None,2024-10-10 22h37.54.502637 +0530,
136,0,136,0,297.32188259996474,,297.2750532999635,10,297.32188259996474,297.32188259996474,0.027244800003245473,300.48821590002626,[0.4287037037037037],[-0.28055555555555556],[1],[0],[0],[3.1857435000129044],['target'],480720,001,2024-10-10_22h37.42.315,Task3_VisualSearch,2024.1.5,None,2024-10-10 22h37.54.502637 +0530,
137,0,137,0,300.57080580003094,,300.49572490004357,10,300.57080580003094,300.57080580003094,0.03516780002973974,303.1616691000527,[-0.026851851851851852],[-0.030555555555555555],[1],[0],[0],[2.6318175999913365],['target'],480720,001,2024-10-10_22h37.42.315,Task3_VisualSearch,2024.1.5,None,2024-10-10 22h37.54.502637 +0530,
138,0,138,0,303.21702440001536,,303.16718520002905,5,303.21702440001536,303.21702440001536,0.032663899939507246,305.5537600000389,[-0.3425925925925926],[0.3],[1],[0],[0],[2.3545975999441],['target'],480720,001,2024-10-10_22h37.42.315,Task3_VisualSearch,2024.1.5,None,2024-10-10 22h37.54.502637 +0530,
139,0,139,0,305.6068660999881,,305.558979799971,10,305.6068660999881,305.6068660999881,0.029757800046354532,307.5068024999928,[-0.42407407407407405],[-0.20925925925925926],[1],[0],[0],[1.9184652999974787],['target'],480720,001,2024-10-10_22h37.42.315,Task3_VisualSearch,2024.1.5,None,2024-10-10 22h37.54.502637 +0530,
140,0,140,0,307.55753780005034,,307.511043000035,10,307.55753780005034,307.55753780005034,0.02760679996572435,309.38668320002034,[-0.05740740740740741],[-0.3277777777777778],[1],[0],[0],[1.8482220999430865],['target'],480720,001,2024-10-10_22h37.42.315,Task3_VisualSearch,2024.1.5,None,2024-10-10 22h37.54.502637 +0530,
141,0,141,0,309.4562678000657,,309.39353940007277,10,309.4562678000657,309.4562678000657,0.04507940006442368,311.6892140000127,[0.3453703703703704],[-0.32314814814814813],[1],[0],[0],[2.2513770000077784],['target'],480720,001,2024-10-10_22h37.42.315,Task3_VisualSearch,2024.1.5,None,2024-10-10 22h37.54.502637 +0530,
142,0,142,0,311.73904390004463,,311.6943491999991,5,311.73904390004463,311.73904390004463,0.031185799976810813,313.4868282000534,[-0.18611111111111112],[-0.21203703703703702],[1],[0],[0],[1.7618775999872014],['target'],480720,001,2024-10-10_22h37.42.315,Task3_VisualSearch,2024.1.5,None,2024-10-10 22h37.54.502637 +0530,
143,0,143,0,313.54947199998423,,313.49381969997194,5,313.54947199998423,313.54947199998423,0.04086459998507053,315.321512500057,[-0.3712962962962963],[0.3],[1],[0],[0],[1.786595799960196],['target'],480720,001,2024-10-10_22h37.42.315,Task3_VisualSearch,2024.1.5,None,2024-10-10 22h37.54.502637 +0530,
144,0,144,0,315.385112100048,,315.3293916999828,10,315.385112100048,315.385112100048,0.03753400000277907,316.7524765999988,[-0.1],[0.4212962962962963],[1],[0],[0],[1.3859995000530034],['target'],480720,001,2024-10-10_22h37.42.315,Task3_VisualSearch,2024.1.5,None,2024-10-10 22h37.54.502637 +0530,
145,0,145,0,316.81650419998914,,316.757883900078,5,316.81650419998914,316.81650419998914,0.038770300103351474,318.3693143000128,[-0.018518518518518517],[0.13703703703703704],[1],[0],[0],[1.5732470999937505],['target'],480720,001,2024-10-10_22h37.42.315,Task3_VisualSearch,2024.1.5,None,2024-10-10 22h37.54.502637 +0530,
146,0,146,0,318.40331119997427,,318.3738125000382,5,318.40331119997427,318.40331119997427,0.017492200015112758,319.887159600039,[-0.19537037037037036],[0.1259259259259259],[1],[0],[0],[1.4962536999955773],['target'],480720,001,2024-10-10_22h37.42.315,Task3_VisualSearch,2024.1.5,None,2024-10-10 22h37.54.502637 +0530,
147,0,147,0,319.9327912000008,,319.8933999000583,5,319.9327912000008,319.9327912000008,0.027039800072088838,321.1528102000011,[-0.14166666666666666],[0.34074074074074073],[1],[0],[0],[1.2330833999440074],['target'],480720,001,2024-10-10_22h37.42.315,Task3_VisualSearch,2024.1.5,None,2024-10-10 22h37.54.502637 +0530,
148,0,148,0,321.2550953000318,,321.1588060000213,10,321.2550953000318,321.2550953000318,0.07055659999605268,323.2355330999708,[0.049074074074074076],[-0.06666666666666667],[1],[0],[0],[2.0070411000633612],['target'],480720,001,2024-10-10_22h37.42.315,Task3_VisualSearch,2024.1.5,None,2024-10-10 22h37.54.502637 +0530,
149,0,149,0,323.2654252999928,,323.23978870001156,5,323.2654252999928,323.2654252999928,0.014846499892883003,324.89079900004435,[0.13796296296296295],[0.10555555555555556],[1],[0],[0],[1.6362929999595508],['target'],480720,001,2024-10-10_22h37.42.315,Task3_VisualSearch,2024.1.5,None,2024-10-10 22h37.54.502637 +0530,
150,0,150,0,324.92520060006063,,324.8970368000446,5,324.92520060006063,324.92520060006063,0.017904800013639033,326.8358514000429,[-0.2712962962962963],[0.2175925925925926],[1],[0],[0],[1.9214109000749886],['target'],480720,001,2024-10-10_22h37.42.315,Task3_VisualSearch,2024.1.5,None,2024-10-10 22h37.54.502637 +0530,
151,0,151,0,326.9304204999935,,326.8416292000329,10,326.9304204999935,326.9304204999935,0.06263430009130388,328.03615090006497,[-0.4583333333333333],[0.3398148148148148],[1],[0],[0],[1.1325623999582604],['target'],480720,001,2024-10-10_22h37.42.315,Task3_VisualSearch,2024.1.5,None,2024-10-10 22h37.54.502637 +0530,
152,0,152,0,328.0653128999984,,328.040091700037,5,328.0653128999984,328.0653128999984,0.015131300082430243,328.46850820002146,[-0.42777777777777776],[0.30462962962962964],[1],[0],[0],[0.4136308999732137],[],480720,001,2024-10-10_22h37.42.315,Task3_VisualSearch,2024.1.5,None,2024-10-10 22h37.54.502637 +0530,
153,0,153,0,328.49697740003467,,328.4717800000217,5,328.49697740003467,328.49697740003467,0.01448740006890148,329.6193748000078,[-0.14814814814814814],[0.15],[1],[0],[0],[1.1331234000390396],['target'],480720,001,2024-10-10_22h37.42.315,Task3_VisualSearch,2024.1.5,None,2024-10-10 22h37.54.502637 +0530,
154,0,154,0,329.7227245999966,,329.62542060005944,10,329.7227245999966,329.7227245999966,0.06341110006906092,331.43501820007805,[0.4166666666666667],[0.4981481481481482],[1],[0],[0],[1.7470954000018537],['target'],480720,001,2024-10-10_22h37.42.315,Task3_VisualSearch,2024.1.5,None,2024-10-10 22h37.54.502637 +0530,
155,0,155,0,331.48350059997756,,331.43902300007176,10,331.48350059997756,331.48350059997756,0.026290200068615377,334.9710962000536,[-0.3490740740740741],[-0.43148148148148147],[1],[0],[0],[3.5061197000322863],['target'],480720,001,2024-10-10_22h37.42.315,Task3_VisualSearch,2024.1.5,None,2024-10-10 22h37.54.502637 +0530,
156,0,156,0,335.02646650001407,,334.9742502999725,10,335.02646650001407,335.02646650001407,0.0284708000253886,336.1855163000291,[-0.3509259259259259],[-0.28703703703703703],[1],[0],[0],[1.182727700099349],['target'],480720,001,2024-10-10_22h37.42.315,Task3_VisualSearch,2024.1.5,None,2024-10-10 22h37.54.502637 +0530,
157,0,157,0,336.21569089998957,,336.188951899996,5,336.21569089998957,336.21569089998957,0.015250299940817058,338.6687941000564,[0.37962962962962965],[-0.387037037037037],[1],[0],[0],[2.464572499971837],['target'],480720,001,2024-10-10_22h37.42.315,Task3_VisualSearch,2024.1.5,None,2024-10-10 22h37.54.502637 +0530,
158,0,158,0,338.7018968000775,,338.67427020007744,5,338.7018968000775,338.7018968000775,0.016727900016121566,340.3189016999677,[-0.35462962962962963],[0.06296296296296296],[1],[0],[0],[1.6283699000487104],['target'],480720,001,2024-10-10_22h37.42.315,Task3_VisualSearch,2024.1.5,None,2024-10-10 22h37.54.502637 +0530,
159,0,159,0,340.3718078000238,,340.32452390005346,10,340.3718078000238,340.3718078000238,0.03035789995919913,342.1181422000518,[0.041666666666666664],[0.10740740740740741],[1],[0],[0],[1.763853000011295],['target'],480720,001,2024-10-10_22h37.42.315,Task3_VisualSearch,2024.1.5,None,2024-10-10 22h37.54.502637 +0530,
160,0,160,0,342.1979927000357,,342.1222766999854,10,342.1979927000357,342.1979927000357,0.031162000028416514,343.8770577000687,[0.28425925925925927],[0.2712962962962963],[1],[0],[0],[1.724029399920255],['target'],480720,001,2024-10-10_22h37.42.315,Task3_VisualSearch,2024.1.5,None,2024-10-10 22h37.54.502637 +0530,
161,0,161,0,343.90674740006216,,343.88126880000345,5,343.90674740006216,343.90674740006216,0.01529599993955344,345.5354277000297,[-0.2101851851851852],[0.39351851851851855],[1],[0],[0],[1.6389506000559777],['target'],480720,001,2024-10-10_22h37.42.315,Task3_VisualSearch,2024.1.5,None,2024-10-10 22h37.54.502637 +0530,
162,0,162,0,345.5858363000443,,345.5430833999999,5,345.5858363000443,345.5858363000443,0.027568600024096668,347.7684606000548,[-0.027777777777777776],[0.10277777777777777],[1],[0],[0],[2.198704899987206],['target'],480720,001,2024-10-10_22h37.42.315,Task3_VisualSearch,2024.1.5,None,2024-10-10 22h37.54.502637 +0530,
163,0,163,0,347.837904300075,,347.77760719996877,10,347.837904300075,347.837904300075,0.039366799988783896,350.6190873000305,[-0.45185185185185184],[-0.26851851851851855],[1],[0],[0],[2.8028934999601915],['target'],480720,001,2024-10-10_22h37.42.315,Task3_VisualSearch,2024.1.5,None,2024-10-10 22h37.54.502637 +0530,
164,0,164,0,350.6980261000572,,350.62661819998175,10,350.6980261000572,350.6980261000572,0.048920099972747266,352.91840640001465,[0.3787037037037037],[0.1537037037037037],[1],[0],[0],[2.2437760999891907],['target'],480720,001,2024-10-10_22h37.42.315,Task3_VisualSearch,2024.1.5,None,2024-10-10 22h37.54.502637 +0530,
165,0,165,0,352.947243600036,,352.92235070001334,5,352.947243600036,352.947243600036,0.014673999976366758,354.56789690000005,[0.34074074074074073],[0.27685185185185185],[1],[0],[0],[1.631027500028722],['target'],480720,001,2024-10-10_22h37.42.315,Task3_VisualSearch,2024.1.5,None,2024-10-10 22h37.54.502637 +0530,
166,0,166,0,354.6447726000333,,354.5738891999936,5,354.6447726000333,354.6447726000333,0.05280329997185618,356.434432500042,[0.26944444444444443],[-0.012962962962962963],[1],[0],[0],[1.8082884000614285],['target'],480720,001,2024-10-10_22h37.42.315,Task3_VisualSearch,2024.1.5,None,2024-10-10 22h37.54.502637 +0530,
167,0,167,0,356.49407190002967,,356.4405715999892,10,356.49407190002967,356.49407190002967,0.03516460000537336,358.367165200063,[-0.2222222222222222],[0.26296296296296295],[1],[0],[0],[1.892156699905172],['target'],480720,001,2024-10-10_22h37.42.315,Task3_VisualSearch,2024.1.5,None,2024-10-10 22h37.54.502637 +0530,
168,0,168,0,358.43931509996764,,358.37131249997765,10,358.43931509996764,358.43931509996764,0.05108430003747344,360.6176938000135,[0.22037037037037038],[0.03148148148148148],[1],[0],[0],[2.1956750999670476],['target'],480720,001,2024-10-10_22h37.42.315,Task3_VisualSearch,2024.1.5,None,2024-10-10 22h37.54.502637 +0530,
169,0,169,0,360.64994400006253,,360.6209609999787,5,360.64994400006253,360.64994400006253,0.018938299966976047,362.3176394000184,[0.2861111111111111],[-0.29444444444444445],[1],[0],[0],[1.6777607999974862],['target'],480720,001,2024-10-10_22h37.42.315,Task3_VisualSearch,2024.1.5,None,2024-10-10 22h37.54.502637 +0530,
170,0,170,0,362.38367500004824,,362.3255305000348,5,362.38367500004824,362.38367500004824,0.045693399966694415,363.66721590003,[-0.13703703703703704],[-0.16111111111111112],[1],[0],[0],[1.2968671000562608],['target'],480720,001,2024-10-10_22h37.42.315,Task3_VisualSearch,2024.1.5,None,2024-10-10 22h37.54.502637 +0530,
171,0,171,0,363.77712760004215,,363.67441630002577,10,363.77712760004215,363.77712760004215,0.08167670003604144,366.2724619000219,[0.412962962962963],[0.44907407407407407],[1],[0],[0],[2.5179532999172807],['target'],480720,001,2024-10-10_22h37.42.315,Task3_VisualSearch,2024.1.5,None,2024-10-10 22h37.54.502637 +0530,
172,0,172,0,366.3359163000714,,366.2770695000654,10,366.3359163000714,366.3359163000714,0.04038470005616546,368.7195621000137,[-0.20462962962962963],[-0.4166666666666667],[1],[0],[0],[2.4026827999623492],['target'],480720,001,2024-10-10_22h37.42.315,Task3_VisualSearch,2024.1.5,None,2024-10-10 22h37.54.502637 +0530,
173,0,173,0,368.8244782000547,,368.72384370001964,10,368.8244782000547,368.8244782000547,0.08015210006851703,371.0666008000262,[-0.42962962962962964],[0.26944444444444443],[1],[0],[0],[2.262867399957031],['target'],480720,001,2024-10-10_22h37.42.315,Task3_VisualSearch,2024.1.5,None,2024-10-10 22h37.54.502637 +0530,
174,0,174,0,371.13048000005074,,371.070430999971,5,371.13048000005074,371.13048000005074,0.04196599998977035,374.4836861999938,[-0.11388888888888889],[0.35555555555555557],[1],[0],[0],[3.3715215999400243],['target'],480720,001,2024-10-10_22h37.42.315,Task3_VisualSearch,2024.1.5,None,2024-10-10 22h37.54.502637 +0530,
175,0,175,0,374.58987260004506,,374.4899439000292,10,374.58987260004506,374.58987260004506,0.07780959992669523,375.9997363999719,[0.1527777777777778],[0.20555555555555555],[1],[0],[0],[1.4328226000070572],['target'],480720,001,2024-10-10_22h37.42.315,Task3_VisualSearch,2024.1.5,None,2024-10-10 22h37.54.502637 +0530,
176,0,176,0,376.09767010004725,,376.0035307999933,10,376.09767010004725,376.09767010004725,0.066490099998191,378.494181200047,[-0.14444444444444443],[-0.07962962962962963],[1],[0],[0],[2.424370100023225],['target'],480720,001,2024-10-10_22h37.42.315,Task3_VisualSearch,2024.1.5,None,2024-10-10 22h37.54.502637 +0530,
177,0,177,0,378.57098690001294,,378.4984927000478,10,378.57098690001294,378.57098690001294,0.05518420005682856,380.9333575000055,[-0.1638888888888889],[0.46944444444444444],[1],[0],[0],[2.379932100069709],['target'],480720,001,2024-10-10_22h37.42.315,Task3_VisualSearch,2024.1.5,None,2024-10-10 22h37.54.502637 +0530,
178,0,178,0,380.98450580006465,,380.9385200999677,10,380.98450580006465,380.98450580006465,0.02763169992249459,382.4709062000038,[-0.22870370370370371],[-0.049074074074074076],[1],[0],[0],[1.5054723999928683],['target'],480720,001,2024-10-10_22h37.42.315,Task3_VisualSearch,2024.1.5,None,2024-10-10 22h37.54.502637 +0530,
179,0,179,0,382.51472320000175,,382.4765740999719,5,382.51472320000175,382.51472320000175,0.0276066999649629,384.3163810999831,[-0.43333333333333335],[-0.2814814814814815],[1],[0],[0],[1.8126720000291243],['target'],480720,001,2024-10-10_22h37.42.315,Task3_VisualSearch,2024.1.5,None,2024-10-10 22h37.54.502637 +0530,
180,0,180,0,384.3701015000697,,384.321995300008,10,384.3701015000697,384.3701015000697,0.030608100001700222,386.54934570007026,[0.2861111111111111],[0.4583333333333333],[1],[0],[0],[2.1973835000535473],['target'],480720,001,2024-10-10_22h37.42.315,Task3_VisualSearch,2024.1.5,None,2024-10-10 22h37.54.502637 +0530,
181,0,181,0,386.6371139000403,,386.5542319000233,10,386.6371139000403,386.6371139000403,0.057413100032135844,388.9674317999743,[-0.03148148148148148],[-0.21388888888888888],[1],[0],[0],[2.3562999999849126],['target'],480720,001,2024-10-10_22h37.42.315,Task3_VisualSearch,2024.1.5,None,2024-10-10 22h37.54.502637 +0530,
182,0,182,0,389.0165513000684,,388.9723753000144,5,389.0165513000684,389.0165513000684,0.03104069991968572,390.9166707000695,[0.17777777777777778],[0.3194444444444444],[1],[0],[0],[1.913702999940142],['target'],480720,001,2024-10-10_22h37.42.315,Task3_VisualSearch,2024.1.5,None,2024-10-10 22h37.54.502637 +0530,
183,0,183,0,390.9811344000045,,390.9228032999672,5,390.9811344000045,390.9811344000045,0.04698640003334731,392.8856232999824,[-0.046296296296296294],[0.025],[1],[0],[0],[1.916626000078395],['target'],480720,001,2024-10-10_22h37.42.315,Task3_VisualSearch,2024.1.5,None,2024-10-10 22h37.54.502637 +0530,
184,0,184,0,392.91745509998873,,392.89128880004864,5,392.91745509998873,392.91745509998873,0.016998899984173477,394.7998360999627,[0.1824074074074074],[-0.20925925925925926],[1],[0],[0],[1.8918669000267982],['target'],480720,001,2024-10-10_22h37.42.315,Task3_VisualSearch,2024.1.5,None,2024-10-10 22h37.54.502637 +0530,
185,0,185,0,394.8430409000721,,394.8075829000445,5,394.8430409000721,394.8430409000721,0.02495800005272031,395.7159584000474,[0.11666666666666667],[-0.14907407407407408],[1],[0],[0],[0.884348800056614],['target'],480720,001,2024-10-10_22h37.42.315,Task3_VisualSearch,2024.1.5,None,2024-10-10 22h37.54.502637 +0530,
186,0,186,0,395.7529794999864,,395.72357899998315,5,395.7529794999864,395.7529794999864,0.01953619997948408,398.3660952000646,[0.2351851851851852],[0.058333333333333334],[1],[0],[0],[2.6236753999255598],['target'],480720,001,2024-10-10_22h37.42.315,Task3_VisualSearch,2024.1.5,None,2024-10-10 22h37.54.502637 +0530,
187,0,187,0,398.41246420005336,,398.3737804000266,5,398.41246420005336,398.41246420005336,0.028485800023190677,400.0822416000301,[-0.1962962962962963],[0.3],[1],[0],[0],[1.6811029000673443],['target'],480720,001,2024-10-10_22h37.42.315,Task3_VisualSearch,2024.1.5,None,2024-10-10 22h37.54.502637 +0530,
188,0,188,0,400.115164799965,,400.08809069998097,5,400.115164799965,400.115164799965,0.018036800087429583,401.9356606999645,[0.05648148148148148],[-0.3861111111111111],[1],[0],[0],[1.8298921999521554],['target'],480720,001,2024-10-10_22h37.42.315,Task3_VisualSearch,2024.1.5,None,2024-10-10 22h37.54.502637 +0530,
189,0,189,0,402.0425841000397,,401.94239680003375,10,402.0425841000397,402.0425841000397,0.08356780000030994,404.52366710000206,[-0.4],[0.09074074074074075],[1],[0],[0],[2.4986048999708146],['target'],480720,001,2024-10-10_22h37.42.315,Task3_VisualSearch,2024.1.5,None,2024-10-10 22h37.54.502637 +0530,
190,0,190,0,404.5661569000222,,404.5315244999947,5,404.5661569000222,404.5661569000222,0.0233322000131011,407.2660087000113,[0.19537037037037036],[-0.29444444444444445],[1],[0],[0],[2.711761899990961],['target'],480720,001,2024-10-10_22h37.42.315,Task3_VisualSearch,2024.1.5,None,2024-10-10 22h37.54.502637 +0530,
191,0,191,0,407.31740709999576,,407.27360499999486,5,407.31740709999576,407.31740709999576,0.031085200025700033,409.2818350000307,[-0.412962962962963],[-0.19722222222222222],[1],[0],[0],[1.9780562000814825],['target'],480720,001,2024-10-10_22h37.42.315,Task3_VisualSearch,2024.1.5,None,2024-10-10 22h37.54.502637 +0530,
192,0,192,0,409.3160570000764,,409.2882357999915,5,409.3160570000764,409.3160570000764,0.018273199908435345,411.64854680001736,[-0.16944444444444445],[-0.2759259259259259],[1],[0],[0],[2.3425597999012098],['target'],480720,001,2024-10-10_22h37.42.315,Task3_VisualSearch,2024.1.5,None,2024-10-10 22h37.54.502637 +0530,
193,0,193,0,411.68478740006685,,411.65477230004035,5,411.68478740006685,411.68478740006685,0.019946200074627995,414.7320058000041,[-0.021296296296296296],[0.03888888888888889],[1],[0],[0],[3.057809100020677],['target'],480720,001,2024-10-10_22h37.42.315,Task3_VisualSearch,2024.1.5,None,2024-10-10 22h37.54.502637 +0530,
194,0,194,0,414.8102829999989,,414.74057680007536,10,414.8102829999989,414.8102829999989,0.05344859999604523,416.6400150000118,[-0.25925925925925924],[-0.37592592592592594],[1],[0],[0],[1.8477478000568226],['target'],480720,001,2024-10-10_22h37.42.315,Task3_VisualSearch,2024.1.5,None,2024-10-10 22h37.54.502637 +0530,
195,0,195,0,416.6883350000717,,416.64413370005786,10,416.6883350000717,416.6883350000717,0.026856700074858963,422.56645320006646,[0.31851851851851853],[0.4564814814814815],[1],[0],[0],[5.895294199930504],['target'],480720,001,2024-10-10_22h37.42.315,Task3_VisualSearch,2024.1.5,None,2024-10-10 22h37.54.502637 +0530,
196,0,196,0,422.6083543000277,,422.57439580000937,5,422.6083543000277,422.6083543000277,0.023515800014138222,424.46519420004915,[-0.41203703703703703],[0.19722222222222222],[1],[0],[0],[1.8682555999839678],['target'],480720,001,2024-10-10_22h37.42.315,Task3_VisualSearch,2024.1.5,None,2024-10-10 22h37.54.502637 +0530,
197,0,197,0,424.50849440007005,,424.4728924999945,5,424.50849440007005,424.50849440007005,0.025390499969944358,426.5480289000552,[0.21944444444444444],[-0.09259259259259259],[1],[0],[0],[2.0506815999979153],['target'],480720,001,2024-10-10_22h37.42.315,Task3_VisualSearch,2024.1.5,None,2024-10-10 22h37.54.502637 +0530,
198,0,198,0,426.58680230006576,,426.55564569996204,5,426.58680230006576,426.58680230006576,0.023052499978803098,429.21994800004177,[-0.5083333333333333],[0.4546296296296296],[1],[0],[0],[2.642274699988775],['target'],480720,001,2024-10-10_22h37.42.315,Task3_VisualSearch,2024.1.5,None,2024-10-10 22h37.54.502637 +0530,
199,0,199,0,429.27914750005584,,429.2235577000538,10,429.27914750005584,429.27914750005584,0.03335679997690022,431.8236714999657,[-0.1648148148148148],[0.3490740740740741],[1],[0],[0],[2.566863999934867],['target'],480720,001,2024-10-10_22h37.42.315,Task3_VisualSearch,2024.1.5,None,2024-10-10 22h37.54.502637 +0530,
