delay,freq,condition,trials.thisRepN,trials.thisTrialN,trials.thisN,trials.thisIndex,thisRow.t,notes,trial.started,fixation.started,fixation.stopped,polygon.started,key.started,trial.stopped,key.keys,key.rt,key.duration,Beep_Sound.started,sound_1.started,sound_1.stopped,Beep_Sound.stopped,Responses.started,text.started,textbox.started,button.started,Responses.stopped,textbox.text,button.numClicks,button.timesOn,button.timesOff,participant,session,date,expName,psychopyVersion,frameRate,expStart
0.1,1000,unexp,0,0,0,3,0.0107857,,0.0075009,0.0107857,5.0200491,7.0031812,7.0031812,7.672419,space,0.6642314,None,7.6741225,7.786607567,8.1126913,8.0906421,8.0906927,8.1126913,8.1126913,8.1126913,13.8228423,50,1,[5.72923169999558],[5.729263199988054],756777,1,2024-11-14_22h39.01.129,Task6_IntentionalBinding,2024.1.5,None,2024-11-14 22h39.09.722308 +0530
0.4,1000,unexp,0,1,1,4,13.8371815,,13.8245675,13.8371815,18.8525906,20.8360067,20.8360067,21.5537782,space,0.7015133,None,21.5543828,21.96915077,22.2809243,22.2699583,22.2700102,22.2809243,22.2809243,22.2809243,31.9706723,200,1,[9.698667500008014],[9.698678500004462],756777,1,2024-11-14_22h39.01.129,Task6_IntentionalBinding,2024.1.5,None,2024-11-14 22h39.09.722308 +0530
0.4,400,exp,0,2,2,7,31.9856203,,31.9714554,31.9856203,36.9850922,38.9849743,38.9849743,39.5697095,space,0.5702698,None,39.5703186,39.98492677,40.2914249,40.2802288,40.2802713,40.2914249,40.2914249,40.2914249,44.9539671,150,1,[4.67177570000058],[4.6717874000023585],756777,1,2024-11-14_22h39.01.129,Task6_IntentionalBinding,2024.1.5,None,2024-11-14 22h39.09.722308 +0530
0.7,1000,unexp,0,3,3,2,44.9681059,,44.9549416,44.9681059,49.9678759,51.967985,51.967985,52.6866349,space,0.7023369,None,52.6873638,53.40132087,53.7102528,53.6999181,53.699951,53.7102528,53.7102528,53.7102528,61.4852286,173,1,[7.783326900011161],[7.783333400002448],756777,1,2024-11-14_22h39.01.129,Task6_IntentionalBinding,2024.1.5,None,2024-11-14 22h39.09.722308 +0530
0.1,400,exp,0,4,4,9,61.5012235,,61.4859812,61.5012235,66.5004168,68.5003929,68.5003929,68.9849088,space,0.4756116,None,68.9854286,69.10081717,69.4112514,69.4002212,69.4002691,69.4112514,69.4112514,69.4112514,78.6898382,140,1,[9.287439699997776],[9.287453900004039],756777,1,2024-11-14_22h39.01.129,Task6_IntentionalBinding,2024.1.5,None,2024-11-14 22h39.09.722308 +0530
0.1,1000,unexp,0,5,5,0,78.6997624,,78.6912205,78.6997624,83.6996623,85.6995736,85.6995736,86.1177515,space,0.4124609,None,86.1184727,86.23295287,86.5410051,86.5298777,86.5299206,86.5410051,86.5410051,86.5410051,90.6365819,100,1,[4.104759200010449],[4.104770300007658],756777,1,2024-11-14_22h39.01.129,Task6_IntentionalBinding,2024.1.5,None,2024-11-14 22h39.09.722308 +0530
0.7,400,exp,0,6,6,8,90.6492187,,90.6376444,90.6492187,95.6490443,97.6491387,97.6491387,97.9668743,space,0.3070157,None,97.9676497,98.68215867,98.9894651,98.979729,98.979759,98.9894651,98.9894651,98.9894651,103.1668439,210,1,[4.185160000008182],[4.185169600008521],756777,1,2024-11-14_22h39.01.129,Task6_IntentionalBinding,2024.1.5,None,2024-11-14 22h39.09.722308 +0530
0.4,1000,unexp,0,7,7,1,103.182253,,103.1679108,103.182253,108.1815463,110.1813255,110.1813255,110.4504843,space,0.2671801,None,110.4512787,110.8647267,111.1706625,111.1596222,111.1596526,111.1706625,111.1706625,111.1706625,114.9161412,311,1,[3.754542800001218],[3.7545763999951305],756777,1,2024-11-14_22h39.01.129,Task6_IntentionalBinding,2024.1.5,None,2024-11-14 22h39.09.722308 +0530
0.7,400,exp,0,8,8,5,114.9312528,,114.9173301,114.9312528,119.9308451,121.9307977,121.9307977,122.3160704,space,0.3794871,None,122.316889,123.0309131,123.3413133,123.330141,123.3301813,123.3413133,123.3413133,123.3413133,129.9655281,129,1,[6.633554399988498],[6.63356269999349],756777,1,2024-11-14_22h39.01.129,Task6_IntentionalBinding,2024.1.5,None,2024-11-14 22h39.09.722308 +0530
0.1,400,exp,0,9,9,6,129.981251,,129.9663175,129.981251,134.9806883,136.9804705,136.9804705,137.3984133,space,0.4159514,None,137.3991141,137.5136407,137.8220749,137.8097698,137.8098192,137.8220749,137.8220749,137.8220749,142.2811611,179,1,[4.469127799995476],[4.469135299994377],756777,1,2024-11-14_22h39.01.129,Task6_IntentionalBinding,2024.1.5,None,2024-11-14 22h39.09.722308 +0530
0.7,1000,unexp,1,0,10,2,142.296759,,142.2818578,142.296759,147.2965761,149.296331,149.296331,149.7143877,space,0.413757,None,149.715008,150.4295472,150.7397485,150.7297059,150.7297493,150.7397485,150.7397485,150.7397485,154.3307385,130,1,[3.5995814000052633],[3.59958860000188],756777,1,2024-11-14_22h39.01.129,Task6_IntentionalBinding,2024.1.5,None,2024-11-14 22h39.09.722308 +0530
0.4,400,exp,1,1,11,7,154.3458586,,154.3314009,154.3458586,159.3455631,161.3457449,161.3457449,161.7301658,space,0.3716798,None,161.7307438,162.1459213,162.4630922,162.4500226,162.4500681,162.4630922,162.4630922,162.4630922,165.0638708,110,1,[2.611535799995181],[2.6115448999917135],756777,1,2024-11-14_22h39.01.129,Task6_IntentionalBinding,2024.1.5,None,2024-11-14 22h39.09.722308 +0530
0.1,1000,unexp,1,2,12,3,165.0788908,,165.0646378,165.0788908,170.0786943,172.0782632,172.0782632,172.379814,space,0.2886193,None,172.3805158,172.4950661,172.8000426,172.7896845,172.7897172,172.8000426,172.8000426,172.8000426,178.3300245,135,1,[5.538207000005059],[5.538216400003876],756777,1,2024-11-14_22h39.01.129,Task6_IntentionalBinding,2024.1.5,None,2024-11-14 22h39.09.722308 +0530
0.1,1000,unexp,1,3,13,0,178.3451808,,178.3306989,178.3451808,183.3444179,185.3445257,185.3445257,185.6634051,space,0.3138192,None,185.6650144,185.7778296,186.0911739,186.0800213,186.0800562,186.0911739,186.0911739,186.0911739,193.2455013,125,1,[7.163695299997926],[7.163704599995981],756777,1,2024-11-14_22h39.01.129,Task6_IntentionalBinding,2024.1.5,None,2024-11-14 22h39.09.722308 +0530
0.4,1000,unexp,1,4,14,1,193.2606697,,193.2464887,193.2606697,198.2605408,200.2605173,200.2605173,200.6620578,space,0.3840418,None,200.6628588,201.0769386,201.3905235,201.3801415,201.380178,201.3905235,201.3905235,201.3905235,206.3948187,111,1,[5.0131092999945395],[5.013116999994963],756777,1,2024-11-14_22h39.01.129,Task6_IntentionalBinding,2024.1.5,None,2024-11-14 22h39.09.722308 +0530
0.7,400,exp,1,5,15,8,206.4104417,,206.3955107,206.4104417,211.4096913,213.4099095,213.4099095,213.7941669,space,0.3726563,None,213.7947086,214.509496,214.81992,214.8097777,214.809811,214.81992,214.81992,214.81992,220.1109372,222,1,[5.299496199993882],[5.299503400005051],756777,1,2024-11-14_22h39.01.129,Task6_IntentionalBinding,2024.1.5,None,2024-11-14 22h39.09.722308 +0530
0.7,400,exp,1,6,16,5,220.1265958,,220.1115984,220.1265958,225.1255024,227.1257769,227.1257769,227.5269566,space,0.3878958,None,227.5275653,228.2426795,228.550081,228.5396803,228.5397068,228.550081,228.550081,228.550081,234.1603868,187,1,[5.619123299999046],[5.6191301999933785],756777,1,2024-11-14_22h39.01.129,Task6_IntentionalBinding,2024.1.5,None,2024-11-14 22h39.09.722308 +0530
0.4,1000,unexp,1,7,17,4,234.175534,,234.1611586,234.175534,239.1748502,241.1750827,241.1750827,241.5769216,space,0.3995974,None,241.5775513,241.9914474,242.301229,242.289945,242.289982,242.301229,242.301229,242.301229,246.5928556,231,1,[4.300900400005048],[4.300907900003949],756777,1,2024-11-14_22h39.01.129,Task6_IntentionalBinding,2024.1.5,None,2024-11-14 22h39.09.722308 +0530
0.1,400,exp,1,8,18,6,246.6083429,,246.5936045,246.6083429,251.6079837,253.6080291,253.6080291,253.9100838,space,0.2997527,None,253.9109501,254.0245012,254.3302199,254.3195873,254.3196266,254.3302199,254.3302199,254.3302199,257.142183,234,1,[2.82073649999802],[2.8207438999961596],756777,1,2024-11-14_22h39.01.129,Task6_IntentionalBinding,2024.1.5,None,2024-11-14 22h39.09.722308 +0530
0.1,400,exp,1,9,19,9,257.1578033,,257.1428518,257.1578033,262.157304,264.1572053,264.1572053,264.4256541,space,0.2587471,None,264.4265649,264.5404457,264.8504128,264.8397276,264.8397774,264.8504128,264.8504128,264.8504128,268.1425404,123,1,[3.3010517000075197],[3.301058600001852],756777,1,2024-11-14_22h39.01.129,Task6_IntentionalBinding,2024.1.5,None,2024-11-14 22h39.09.722308 +0530
0.7,400,exp,2,0,20,8,268.1571068,,268.1433487,268.1571068,273.1566256,275.1566658,275.1566658,275.4249331,space,0.2596655,None,275.4255361,276.1399569,276.4509477,276.4398033,276.4398405,276.4509477,276.4509477,276.4509477,280.9779268,"200
",1,[4.536136599999736],[4.536147599996184],756777,1,2024-11-14_22h39.01.129,Task6_IntentionalBinding,2024.1.5,None,2024-11-14 22h39.09.722308 +0530
0.4,1000,unexp,2,1,21,4,280.9896619,,280.9789314,280.9896619,285.9894986,287.9893173,287.9893173,288.2738224,space,0.2741217,None,288.2742845,288.6891952,289.0001909,288.9895565,288.9895976,289.0001909,289.0001909,289.0001909,293.8742432,130,1,[4.88277989999915],[4.882789199997205],756777,1,2024-11-14_22h39.01.129,Task6_IntentionalBinding,2024.1.5,None,2024-11-14 22h39.09.722308 +0530
0.7,400,exp,2,2,22,5,293.889111,,293.8749357,293.889111,298.888827,300.8888373,300.8888373,301.1734664,space,0.2776829,None,301.1740028,301.8886241,302.2031864,302.1896928,302.1897407,302.2031864,302.2031864,302.2031864,306.2584292,150,1,[4.066297700002906],[4.066305899992585],756777,1,2024-11-14_22h39.01.129,Task6_IntentionalBinding,2024.1.5,None,2024-11-14 22h39.09.722308 +0530
0.4,1000,unexp,2,3,23,1,306.2719711,,306.2594188,306.2719711,311.2714479,313.2715247,313.2715247,313.5901621,space,0.3098118,None,313.5912563,314.0047257,314.3097715,314.2994404,314.2994745,314.3097715,314.3097715,314.3097715,317.3406107,170,1,[3.0392283000110183],[3.0392414000089047],756777,1,2024-11-14_22h39.01.129,Task6_IntentionalBinding,2024.1.5,None,2024-11-14 22h39.09.722308 +0530
0.1,400,exp,2,4,24,6,317.3543399,,317.3417715,317.3543399,322.3542732,324.3540708,324.3540708,324.7056632,space,0.3464161,None,324.7061056,324.8208492,325.1329994,325.1198534,325.119903,325.1329994,325.1329994,325.1329994,329.5945181,127,1,[4.472375099998317],[4.472382899999502],756777,1,2024-11-14_22h39.01.129,Task6_IntentionalBinding,2024.1.5,None,2024-11-14 22h39.09.722308 +0530
0.4,400,exp,2,5,25,7,329.6038628,,329.5951836,329.6038628,334.6041947,336.6036183,336.6036183,336.9882831,space,0.3721049,None,336.9887546,337.4034639,337.7106532,337.6996195,337.6996552,337.7106532,337.7106532,337.7106532,342.9718674,148,1,[5.27002789999824],[5.2700379000016255],756777,1,2024-11-14_22h39.01.129,Task6_IntentionalBinding,2024.1.5,None,2024-11-14 22h39.09.722308 +0530
0.7,1000,unexp,2,6,26,2,342.9870583,,342.9725827,342.9870583,347.9863969,349.986347,349.986347,350.4050184,space,0.4087209,None,350.4059707,351.1193848,351.4305419,351.4196429,351.4196874,351.4305419,351.4305419,351.4305419,353.9875344,237,1,[2.565204200000153],[2.5652108999929624],756777,1,2024-11-14_22h39.01.129,Task6_IntentionalBinding,2024.1.5,None,2024-11-14 22h39.09.722308 +0530
0.1,400,exp,2,7,27,9,354.0026533,,353.988262,354.0026533,359.0025034,361.0023431,361.0023431,361.3539494,space,0.3356155,None,361.3546291,361.468925,361.7802041,361.7696585,361.7696973,361.7802041,361.7802041,361.7802041,365.2536857,321,1,[3.4818761000060476],[3.481883200001903],756777,1,2024-11-14_22h39.01.129,Task6_IntentionalBinding,2024.1.5,None,2024-11-14 22h39.09.722308 +0530
0.1,1000,unexp,2,8,28,3,365.2689972,,365.2546281,365.2689972,370.2685167,372.268491,372.268491,372.6200515,space,0.3467523,None,372.6207442,372.7349316,373.0400335,373.029509,373.0295613,373.0400335,373.0400335,373.0400335,379.3361095,100,1,[6.305018600003677],[6.305026699992595],756777,1,2024-11-14_22h39.01.129,Task6_IntentionalBinding,2024.1.5,None,2024-11-14 22h39.09.722308 +0530
0.1,1000,unexp,2,9,29,0,379.3518968,,379.3368129,379.3518968,384.3513942,386.3510541,386.3510541,386.7029908,space,0.3461273,None,386.7037687,386.8176094,387.1301866,387.1196539,387.119697,387.1301866,387.1301866,387.1301866,390.6854616,400,1,[3.564059800002724],[3.564066899998579],756777,1,2024-11-14_22h39.01.129,Task6_IntentionalBinding,2024.1.5,None,2024-11-14 22h39.09.722308 +0530
0.4,1000,unexp,3,0,30,4,390.701067,,390.6861945,390.701067,395.7006245,397.700628,397.700628,398.1194946,space,0.4009239,None,398.1200947,398.5340111,398.842008,398.8295282,398.8295746,398.842008,398.842008,398.842008,402.0353858,126,1,[3.20361340000818],[3.203623499997775],756777,1,2024-11-14_22h39.01.129,Task6_IntentionalBinding,2024.1.5,None,2024-11-14 22h39.09.722308 +0530
0.7,400,exp,3,1,31,5,402.0504544,,402.037052,402.0504544,407.0504333,409.0499229,409.0499229,409.4177188,space,0.3515914,None,409.418162,410.1331983,410.4402088,410.4296539,410.4296994,410.4402088,410.4402088,410.4402088,414.217702,147,1,[3.786331199997221],[3.786337999990792],756777,1,2024-11-14_22h39.01.129,Task6_IntentionalBinding,2024.1.5,None,2024-11-14 22h39.09.722308 +0530
0.1,1000,unexp,3,2,32,3,414.2331685,,414.2187689,414.2331685,419.2325858,421.2326413,421.2326413,421.6839534,space,0.4469561,None,421.6844733,421.7993556,422.109993,422.0996608,422.0997019,422.109993,422.109993,422.109993,425.770049,117,1,[3.6682239000074333],[3.6682425000035437],756777,1,2024-11-14_22h39.01.129,Task6_IntentionalBinding,2024.1.5,None,2024-11-14 22h39.09.722308 +0530
0.4,1000,unexp,3,3,33,1,425.7823539,,425.7710026,425.7823539,430.7821346,432.7821939,432.7821939,433.1503073,space,0.360439,None,433.1508713,433.5652818,433.8836619,433.8696983,433.8697443,433.8836619,433.8836619,433.8836619,438.1329545,142,1,[4.261171799997101],[4.261179100009031],756777,1,2024-11-14_22h39.01.129,Task6_IntentionalBinding,2024.1.5,None,2024-11-14 22h39.09.722308 +0530
0.1,1000,unexp,3,4,34,0,438.1489344,,438.1336749,438.1489344,443.1482953,445.1481693,445.1481693,445.5328173,space,0.3717338,None,445.5334248,445.6481638,445.9599719,445.9498279,445.94987,445.9599719,445.9599719,445.9599719,449.3495678,167,1,[3.3979725999961374],[3.3979838999948697],756777,1,2024-11-14_22h39.01.129,Task6_IntentionalBinding,2024.1.5,None,2024-11-14 22h39.09.722308 +0530
0.1,400,exp,3,5,35,9,449.3647124,,449.3503318,449.3647124,454.3644701,456.3643669,456.3643669,456.6823387,space,0.3027018,None,456.6827696,456.7973685,457.1118049,457.099599,457.0996481,457.1118049,457.1118049,457.1118049,462.4653151,"145
",1,[5.3634354999958305],[5.363457599989488],756777,1,2024-11-14_22h39.01.129,Task6_IntentionalBinding,2024.1.5,None,2024-11-14 22h39.09.722308 +0530
0.7,1000,unexp,3,6,36,2,462.4808455,,462.4660692,462.4808455,467.4803761,469.4805483,469.4805483,469.7652115,space,0.2808283,None,469.7657807,470.4802662,470.7913527,470.7795746,470.7796276,470.7913527,470.7913527,470.7913527,474.731752,118,1,[3.949783200005186],[3.9497906000033254],756777,1,2024-11-14_22h39.01.129,Task6_IntentionalBinding,2024.1.5,None,2024-11-14 22h39.09.722308 +0530
0.4,400,exp,3,7,37,7,474.7468629,,474.7333391,474.7468629,479.7463323,481.746456,481.746456,482.9309706,space,1.1763062,None,482.9314141,483.3463094,483.6600609,483.6497277,483.6497594,483.6600609,483.6600609,483.6600609,487.2145344,300,1,[3.563293799990788],[3.563301499991212],756777,1,2024-11-14_22h39.01.129,Task6_IntentionalBinding,2024.1.5,None,2024-11-14 22h39.09.722308 +0530
0.7,400,exp,3,8,38,8,487.2295353,,487.2152143,487.2295353,492.2293439,494.2291018,494.2291018,494.5309985,space,0.2887303,None,494.5318614,495.2456744,495.563422,495.5497155,495.5497641,495.563422,495.563422,495.563422,499.9134804,450,1,[4.361576800001785],[4.361606599995866],756777,1,2024-11-14_22h39.01.129,Task6_IntentionalBinding,2024.1.5,None,2024-11-14 22h39.09.722308 +0530
0.1,400,exp,3,9,39,6,499.9288308,,499.9142097,499.9288308,504.9287028,506.9286899,506.9286899,507.2633905,space,0.3325323,None,507.2639841,507.3786228,507.6893426,507.6793608,507.6794006,507.6893426,507.6893426,507.6893426,512.9639796,250,1,[5.282750699989265],[5.28275849999045],756777,1,2024-11-14_22h39.01.129,Task6_IntentionalBinding,2024.1.5,None,2024-11-14 22h39.09.722308 +0530
0.1,1000,unexp,4,0,40,0,512.9780783,,512.9648881,512.9780783,517.9778825,519.9779575,519.9779575,520.3954685,space,0.4009877,None,520.3960024,520.5110471,520.8217881,520.8094799,520.8095291,520.8217881,520.8217881,520.8217881,525.251052,141,1,[4.439666999998735],[4.439677600006689],756777,1,2024-11-14_22h39.01.129,Task6_IntentionalBinding,2024.1.5,None,2024-11-14 22h39.09.722308 +0530
0.4,400,exp,4,1,41,7,525.260984,,525.252011,525.260984,530.2603487,532.2605808,532.2605808,532.629118,space,0.3520484,None,532.6298147,533.0438382,533.3497975,533.3395139,533.3395397,533.3497975,533.3497975,533.3497975,537.8786269,127,1,[4.537419899992528],[4.537456099991687],756777,1,2024-11-14_22h39.01.129,Task6_IntentionalBinding,2024.1.5,None,2024-11-14 22h39.09.722308 +0530
0.4,1000,unexp,4,2,42,4,537.893878,,537.8795031,537.893878,542.8932682,544.8933136,544.8933136,545.8442629,space,0.9425635,None,545.8447161,546.2599557,546.5738559,546.5595537,546.5596019,546.5738559,546.5738559,546.5738559,550.1783401,450,1,[3.6163855000049807],[3.6163978000113275],756777,1,2024-11-14_22h39.01.129,Task6_IntentionalBinding,2024.1.5,None,2024-11-14 22h39.09.722308 +0530
0.7,400,exp,4,3,43,5,550.1929997,,550.1790854,550.1929997,555.1928719,557.1934955,557.1934955,557.8436645,space,0.6400236,None,557.8440585,558.5589822,558.8702318,558.8594494,558.8594938,558.8702318,558.8702318,558.8702318,562.6326043,278,1,[3.7711832000059076],[3.7712120000069262],756777,1,2024-11-14_22h39.01.129,Task6_IntentionalBinding,2024.1.5,None,2024-11-14 22h39.09.722308 +0530
0.1,1000,unexp,4,4,44,3,562.6421059,,562.6334073,562.6421059,567.6420587,569.6421112,569.6421112,569.9433849,space,0.2923391,None,569.9439811,570.0584541,570.3721,570.3595605,570.3596007,570.3721,570.3721,570.3721,573.4101247,125,1,[3.048583600000711],[3.0485938000056194],756777,1,2024-11-14_22h39.01.129,Task6_IntentionalBinding,2024.1.5,None,2024-11-14 22h39.09.722308 +0530
0.1,400,exp,4,5,45,6,573.425092,,573.4111215,573.425092,578.4245646,580.4247992,580.4247992,580.7259117,space,0.2907027,None,580.7262814,580.8411381,581.1527286,581.1392771,581.1393021,581.1527286,581.1527286,581.1527286,583.9145476,132,1,[2.7733709999884013],[2.7733796999964397],756777,1,2024-11-14_22h39.01.129,Task6_IntentionalBinding,2024.1.5,None,2024-11-14 22h39.09.722308 +0530
0.7,400,exp,4,6,46,8,583.9248011,,583.9157359,583.9248011,588.924323,590.9241947,590.9241947,591.8917702,space,0.9625391,None,591.8921693,592.6074297,592.919175,592.9094432,592.9094853,592.919175,592.919175,592.919175,599.4792815,310,1,[6.567741299993941],[6.567752000002656],756777,1,2024-11-14_22h39.01.129,Task6_IntentionalBinding,2024.1.5,None,2024-11-14 22h39.09.722308 +0530
0.7,1000,unexp,4,7,47,2,599.4907656,,599.4799632,599.4907656,604.4903452,606.4901489,606.4901489,606.9082474,space,0.4126882,None,606.9089496,607.6233424,607.9288358,607.9193057,607.9193298,607.9288358,607.9288358,607.9288358,611.1751734,"214
",1,[3.2543839999998454],[3.2543937000009464],756777,1,2024-11-14_22h39.01.129,Task6_IntentionalBinding,2024.1.5,None,2024-11-14 22h39.09.722308 +0530
0.1,400,exp,4,8,48,9,611.1898886,,611.1761262,611.1898886,616.1900932,618.189634,618.189634,618.524157,space,0.3293865,None,618.5246703,618.6394581,618.9494393,618.9391765,618.9392278,618.9494393,618.9494393,618.9494393,622.9741958,546,1,[4.033016400004271],[4.033025700002327],756777,1,2024-11-14_22h39.01.129,Task6_IntentionalBinding,2024.1.5,None,2024-11-14 22h39.09.722308 +0530
0.4,1000,unexp,4,9,49,1,622.9893999,,622.9754486,622.9893999,627.9890549,629.9892523,629.9892523,630.390696,space,0.39636,None,630.3912575,630.805877,631.1203098,631.1096992,631.1097442,631.1203098,631.1203098,631.1203098,634.6078991,239,1,[3.4961036999884527],[3.496115199988708],756777,1,2024-11-14_22h39.01.129,Task6_IntentionalBinding,2024.1.5,None,2024-11-14 22h39.09.722308 +0530
0.4,1000,unexp,5,0,50,4,634.6226443,,634.6089181,634.6226443,639.6219911,641.6217126,641.6217126,641.9562635,space,0.330611,None,641.9568233,642.3721204,642.6798977,642.6693716,642.6693998,642.6798977,642.6798977,642.6798977,645.4800735,213,1,[2.8089401999895927],[2.8089512000005925],756777,1,2024-11-14_22h39.01.129,Task6_IntentionalBinding,2024.1.5,None,2024-11-14 22h39.09.722308 +0530
0.4,1000,unexp,5,1,51,1,645.4884049,,645.4809637,645.4884049,650.4880431,652.4879161,652.4879161,652.8071688,space,0.3173938,None,652.8077579,653.2211929,653.5295121,653.5192301,653.5192819,653.5295121,653.5295121,653.5295121,657.4721206,210,1,[3.9512986000045203],[3.951305599999614],756777,1,2024-11-14_22h39.01.129,Task6_IntentionalBinding,2024.1.5,None,2024-11-14 22h39.09.722308 +0530
0.1,1000,unexp,5,2,52,3,657.4879609,,657.4728044,657.4879609,662.487272,664.4873697,664.4873697,664.9388301,space,0.4357733,None,664.9393339,665.0537701,665.3611256,665.349306,665.3493556,665.3611256,665.3611256,665.3611256,668.3559492,312,1,[3.004440299991984],[3.0044848999968963],756777,1,2024-11-14_22h39.01.129,Task6_IntentionalBinding,2024.1.5,None,2024-11-14 22h39.09.722308 +0530
0.7,400,exp,5,3,53,8,668.3703623,,668.3569711,668.3703623,673.3699192,675.370286,675.370286,676.3712526,space,0.986065,None,676.3716519,677.0865077,677.3999991,677.389221,677.3892698,677.3999991,677.3999991,677.3999991,683.2877253,500,1,[5.896907400005148],[5.896916400000919],756777,1,2024-11-14_22h39.01.129,Task6_IntentionalBinding,2024.1.5,None,2024-11-14 22h39.09.722308 +0530
0.1,400,exp,5,4,54,9,683.3033628,,683.2886831,683.3033628,688.3028924,690.3025309,690.3025309,691.5543117,space,1.2462212,None,691.5550321,691.6692957,691.9796062,691.9689804,691.9690185,691.9796062,691.9796062,691.9796062,694.8208158,250,1,[2.8499397999985376],[2.8499496000004],756777,1,2024-11-14_22h39.01.129,Task6_IntentionalBinding,2024.1.5,None,2024-11-14 22h39.09.722308 +0530
0.7,400,exp,5,5,55,5,694.8361898,,694.8217436,694.8361898,699.8354914,701.8356973,701.8356973,703.3372958,space,1.493457,None,703.3381022,704.0521449,704.3609001,704.3493016,704.3493611,704.3609001,704.3609001,704.3609001,709.3070786,550,1,[4.955730699992273],[4.955738399992697],756777,1,2024-11-14_22h39.01.129,Task6_IntentionalBinding,2024.1.5,None,2024-11-14 22h39.09.722308 +0530
0.4,400,exp,5,6,56,7,709.3189943,,709.3079631,709.3189943,714.3181586,716.3180504,716.3180504,716.8696191,space,0.5383137,None,716.8701749,717.2847493,717.5900723,717.5791886,717.5792239,717.5900723,717.5900723,717.5900723,721.3868515,367,1,[3.80611069999577],[3.8061178000061773],756777,1,2024-11-14_22h39.01.129,Task6_IntentionalBinding,2024.1.5,None,2024-11-14 22h39.09.722308 +0530
0.1,1000,unexp,5,7,57,0,721.4013559,,721.3876511,721.4013559,726.4008091,728.4007383,728.4007383,728.7690697,space,0.3664365,None,728.7696435,728.8840163,729.192877,729.1791659,729.1792155,729.192877,729.192877,729.192877,732.077437,211,1,[2.8960737000015797],[2.8960834000026807],756777,1,2024-11-14_22h39.01.129,Task6_IntentionalBinding,2024.1.5,None,2024-11-14 22h39.09.722308 +0530
0.1,400,exp,5,8,58,6,732.0841302,,732.0782431,732.0841302,737.0835444,739.0835828,739.0835828,739.4184619,space,0.323783,None,739.418998,739.5333149,739.8397283,739.8290399,739.8290808,739.8397283,739.8397283,739.8397283,742.5356367,412,1,[2.7042034000041895],[2.7042118000099435],756777,1,2024-11-14_22h39.01.129,Task6_IntentionalBinding,2024.1.5,None,2024-11-14 22h39.09.722308 +0530
0.7,1000,unexp,5,9,59,2,742.5500973,,742.5375322,742.5500973,747.5498184,749.5500342,749.5500342,749.9512164,space,0.3873419,None,749.9518456,750.6664875,750.9797358,750.9690973,750.9691357,750.9797358,750.9797358,750.9797358,756.6888783,210,1,[5.717625999997836],[5.717636599991238],756777,1,2024-11-14_22h39.01.129,Task6_IntentionalBinding,2024.1.5,None,2024-11-14 22h39.09.722308 +0530
0.1,400,exp,6,0,60,6,756.6994308,,756.6895466,756.6994308,761.6989479,763.6991527,763.6991527,764.0838907,space,0.3692135,None,764.0845896,764.1990087,764.5090121,764.4990213,764.499053,764.5090121,764.5090121,764.5090121,767.5332051,413,1,[3.0325540999911027],[3.0325619999930495],756777,1,2024-11-14_22h39.01.129,Task6_IntentionalBinding,2024.1.5,None,2024-11-14 22h39.09.722308 +0530
0.4,1000,unexp,6,1,61,4,767.5492522,,767.5339837,767.5492522,772.5485537,774.5484679,774.5484679,774.9665941,space,0.4048627,None,774.9671367,775.3820647,775.6913558,775.6789524,775.6789758,775.6913558,775.6913558,775.6913558,783.584169,419,1,[7.9039569000015035],[7.903963999997359],756777,1,2024-11-14_22h39.01.129,Task6_IntentionalBinding,2024.1.5,None,2024-11-14 22h39.09.722308 +0530
0.7,400,exp,6,2,62,5,783.5983633,,783.584866,783.5983633,788.5979295,790.5976426,790.5976426,791.5492102,space,0.946821,None,791.5496688,792.2641751,792.5713532,792.5588584,792.5589189,792.5713532,792.5713532,792.5713532,797.9822087,417,1,[5.42123829999764],[5.421246300000348],756777,1,2024-11-14_22h39.01.129,Task6_IntentionalBinding,2024.1.5,None,2024-11-14 22h39.09.722308 +0530
0.7,400,exp,6,3,63,8,797.9975077,,797.9829184,797.9975077,802.9971467,804.997062,804.997062,805.4148686,space,0.4050505,None,805.4153065,806.1302005,806.4399296,806.429192,806.4292318,806.4399296,806.4399296,806.4399296,810.7693536,319,1,[4.3383159000077285],[4.338324399999692],756777,1,2024-11-14_22h39.01.129,Task6_IntentionalBinding,2024.1.5,None,2024-11-14 22h39.09.722308 +0530
0.4,400,exp,6,4,64,7,810.7804056,,810.7700427,810.7804056,815.7798688,817.7800822,817.7800822,818.6315782,space,0.8434045,None,818.6323686,819.0465548,819.3612139,819.3504245,819.3504907,819.3612139,819.3612139,819.3612139,824.5472351,547,1,[5.1950853999878746],[5.195092699999805],756777,1,2024-11-14_22h39.01.129,Task6_IntentionalBinding,2024.1.5,None,2024-11-14 22h39.09.722308 +0530
0.1,1000,unexp,6,5,65,0,824.5630835,,824.5480092,824.5630835,829.562328,831.5623006,831.5623006,832.0974385,space,0.5264807,None,832.098099,832.2122548,832.5198717,832.5089425,832.5089815,832.5198717,832.5198717,832.5198717,836.4969355,631,1,[3.9861841999954777],[3.9861916999943787],756777,1,2024-11-14_22h39.01.129,Task6_IntentionalBinding,2024.1.5,None,2024-11-14 22h39.09.722308 +0530
0.1,1000,unexp,6,6,66,3,836.5122336,,836.4978329,836.5122336,841.5114983,843.5115312,843.5115312,843.8631832,space,0.3354067,None,843.8637392,843.9780755,844.2904,844.2792238,844.2792575,844.2904,844.2904,844.2904,846.7628452,214,1,[2.4819810000044527],[2.4820097999909194],756777,1,2024-11-14_22h39.01.129,Task6_IntentionalBinding,2024.1.5,None,2024-11-14 22h39.09.722308 +0530
0.4,1000,unexp,6,7,67,1,846.7780067,,846.7636536,846.7780067,851.7780478,853.7778488,853.7778488,857.2297889,space,3.4351339,None,857.2307147,857.6443335,857.9516596,857.939066,857.9391156,857.9516596,857.9516596,857.9516596,860.8496021,659,1,[2.908279400013271],[2.9082879000052344],756777,1,2024-11-14_22h39.01.129,Task6_IntentionalBinding,2024.1.5,None,2024-11-14 22h39.09.722308 +0530
0.1,400,exp,6,8,68,9,860.8609803,,860.8503609,860.8609803,865.8608129,867.8608333,867.8608333,868.4790296,space,0.6015255,None,868.4798173,868.5938751,868.8994525,868.8888951,868.8889341,868.8994525,868.8994525,868.8994525,873.4460585,415,1,[4.55546879999747],[4.55547760000627],756777,1,2024-11-14_22h39.01.129,Task6_IntentionalBinding,2024.1.5,None,2024-11-14 22h39.09.722308 +0530
0.7,1000,unexp,6,9,69,2,873.4606671,,873.4467541,873.4606671,878.459875,880.4600731,880.4600731,880.9285491,space,0.4590854,None,880.9293093,881.6431357,881.9496157,881.9391364,881.9391806,881.9496157,881.9496157,881.9496157,885.6446199,378,1,[3.7036933000053978],[3.7037020999996457],756777,1,2024-11-14_22h39.01.129,Task6_IntentionalBinding,2024.1.5,None,2024-11-14 22h39.09.722308 +0530
0.7,400,exp,7,0,70,8,885.6598479,,885.6455771,885.6598479,890.6598733,892.6596916,892.6596916,893.0613563,space,0.3971635,None,893.0622244,893.7759938,894.0920642,894.079478,894.0795259,894.0920642,894.0920642,894.0920642,902.0433807,347,1,[7.961802200006787],[7.961819100004504],756777,1,2024-11-14_22h39.01.129,Task6_IntentionalBinding,2024.1.5,None,2024-11-14 22h39.09.722308 +0530
0.7,400,exp,7,1,71,5,902.0590838,,902.0441602,902.0590838,907.0584448,909.058448,909.058448,909.4267311,space,0.353375,None,909.4273604,910.1420005,910.4516208,910.4392379,910.4392878,910.4516208,910.4516208,910.4516208,915.1260767,256,1,[4.684726999999839],[4.684736099996371],756777,1,2024-11-14_22h39.01.129,Task6_IntentionalBinding,2024.1.5,None,2024-11-14 22h39.09.722308 +0530
0.4,1000,unexp,7,2,72,4,915.1421419,,915.1270764,915.1421419,920.1412812,922.1409672,922.1409672,922.4603501,space,0.3146063,None,922.4612207,922.8743672,923.1793246,923.1689373,923.1689864,923.1793246,923.1793246,923.1793246,926.4641287,318,1,[3.293568900000537],[3.293580799989286],756777,1,2024-11-14_22h39.01.129,Task6_IntentionalBinding,2024.1.5,None,2024-11-14 22h39.09.722308 +0530
0.4,400,exp,7,3,73,7,926.4746056,,926.4652602,926.4746056,931.4740436,933.4738218,933.4738218,933.8254408,space,0.3432992,None,933.825992,934.240559,934.5498765,934.539007,934.5390485,934.5498765,934.5498765,934.5498765,939.87564,415,1,[5.334683799999766],[5.334714600001462],756777,1,2024-11-14_22h39.01.129,Task6_IntentionalBinding,2024.1.5,None,2024-11-14 22h39.09.722308 +0530
0.7,1000,unexp,7,4,74,2,939.8903878,,939.8767148,939.8903878,944.8898252,946.8898747,946.8898747,947.275444,space,0.3835078,None,947.2760284,947.9898541,948.2990899,948.2889788,948.289005,948.2990899,948.2990899,948.2990899,951.7081647,412,1,[3.417294899991248],[3.417302199988626],756777,1,2024-11-14_22h39.01.129,Task6_IntentionalBinding,2024.1.5,None,2024-11-14 22h39.09.722308 +0530
0.1,400,exp,7,5,75,9,951.7230212,,951.7088413,951.7230212,956.7227294,958.7224761,958.7224761,959.0912269,space,0.3586348,None,959.0919376,959.2059104,959.5215039,959.5092171,959.5092571,959.5215039,959.5215039,959.5215039,963.9299826,238,1,[4.418758300002082],[4.418766899994807],756777,1,2024-11-14_22h39.01.129,Task6_IntentionalBinding,2024.1.5,None,2024-11-14 22h39.09.722308 +0530
0.1,1000,unexp,7,6,76,0,963.9393403,,963.930854,963.9393403,968.9389216,970.9389095,970.9389095,971.4069369,space,0.4643684,None,971.407757,971.5221677,971.8303233,971.818957,971.818995,971.8303233,971.8303233,971.8303233,974.8401172,231,1,[3.0193169999984093],[3.019324400011101],756777,1,2024-11-14_22h39.01.129,Task6_IntentionalBinding,2024.1.5,None,2024-11-14 22h39.09.722308 +0530
0.1,1000,unexp,7,7,77,3,974.8550377,,974.8409616,974.8550377,979.8550764,981.8553586,981.8553586,982.2400116,space,0.3694001,None,982.2407313,982.3548099,982.6735976,982.6592197,982.6592642,982.6735976,982.6735976,982.6735976,986.8227028,421,1,[4.161542499990901],[4.161552999998094],756777,1,2024-11-14_22h39.01.129,Task6_IntentionalBinding,2024.1.5,None,2024-11-14 22h39.09.722308 +0530
0.4,1000,unexp,7,8,78,1,986.8383955,,986.8236452,986.8383955,991.8378603,993.8377348,993.8377348,994.3057701,space,0.4600121,None,994.3064043,994.7211474,995.0297118,995.0187548,995.0188506,995.0297118,995.0297118,995.0297118,997.7054217,213,1,[2.684628699993482],[2.6846357000031276],756777,1,2024-11-14_22h39.01.129,Task6_IntentionalBinding,2024.1.5,None,2024-11-14 22h39.09.722308 +0530
0.1,400,exp,7,9,79,6,997.7206477,,997.7063566,997.7206477,1002.720667,1004.720344,1004.720344,1005.255183,space,0.5329449,None,1005.255773,1005.370291,1005.681842,1005.669221,1005.669269,1005.681842,1005.681842,1005.681842,1009.492976,213,1,[3.821845200000098],[3.821853600005852],756777,1,2024-11-14_22h39.01.129,Task6_IntentionalBinding,2024.1.5,None,2024-11-14 22h39.09.722308 +0530
0.4,400,exp,8,0,80,7,1009.50398,,1009.493649,1009.50398,1014.50337,1016.503013,1016.503013,1017.504232,space,0.9923611,None,1017.504832,1017.919784,1018.231267,1018.219029,1018.219075,1018.231267,1018.231267,1018.231267,1021.174034,251,1,[2.9526788999937708],[2.9526904999947874],756777,1,2024-11-14_22h39.01.129,Task6_IntentionalBinding,2024.1.5,None,2024-11-14 22h39.09.722308 +0530
0.7,400,exp,8,1,81,8,1021.186198,,1021.174921,1021.186198,1026.185957,1028.186027,1028.186027,1028.70378,space,0.5136401,None,1028.70441,1029.419369,1029.730989,1029.718824,1029.718868,1029.730989,1029.730989,1029.730989,1033.475257,326,1,[3.753907499994966],[3.7539159000007203],756777,1,2024-11-14_22h39.01.129,Task6_IntentionalBinding,2024.1.5,None,2024-11-14 22h39.09.722308 +0530
0.1,1000,unexp,8,2,82,0,1033.485779,,1033.476037,1033.485779,1038.485236,1040.485125,1040.485125,1041.086729,space,0.5999848,None,1041.087332,1041.201885,1041.512255,1041.498998,1041.499044,1041.512255,1041.512255,1041.512255,1047.459735,714,1,[5.95853009998973],[5.9585405999969225],756777,1,2024-11-14_22h39.01.129,Task6_IntentionalBinding,2024.1.5,None,2024-11-14 22h39.09.722308 +0530
0.1,400,exp,8,3,83,6,1047.468401,,1047.460665,1047.468401,1052.468165,1054.467788,1054.467788,1054.885822,space,0.4042521,None,1054.886314,1055.00117,1055.309061,1055.298482,1055.298523,1055.309061,1055.309061,1055.309061,1060.353782,224,1,[5.0531646000017645],[5.053174400003627],756777,1,2024-11-14_22h39.01.129,Task6_IntentionalBinding,2024.1.5,None,2024-11-14 22h39.09.722308 +0530
0.4,1000,unexp,8,4,84,1,1060.368066,,1060.354898,1060.368066,1065.367589,1067.367684,1067.367684,1068.051946,space,0.6699481,None,1068.052567,1068.467174,1068.778031,1068.768689,1068.768722,1068.778031,1068.778031,1068.778031,1071.106815,389,1,[2.3364061000029324],[2.336417300000903],756777,1,2024-11-14_22h39.01.129,Task6_IntentionalBinding,2024.1.5,None,2024-11-14 22h39.09.722308 +0530
0.1,1000,unexp,8,5,85,3,1071.117388,,1071.10765,1071.117388,1076.116746,1078.117089,1078.117089,1078.485205,space,0.3587932,None,1078.485882,1078.600174,1078.909048,1078.89867,1078.898736,1078.909048,1078.909048,1078.909048,1082.351551,216,1,[3.4507178000058047],[3.4507308000029298],756777,1,2024-11-14_22h39.01.129,Task6_IntentionalBinding,2024.1.5,None,2024-11-14 22h39.09.722308 +0530
0.7,1000,unexp,8,6,86,2,1082.366342,,1082.352234,1082.366342,1087.366278,1089.366191,1089.366191,1089.78407,space,0.4115051,None,1089.7846,1090.499693,1090.812482,1090.798945,1090.79902,1090.812482,1090.812482,1090.812482,1093.717441,319,1,[2.9161351999937324],[2.916142599991872],756777,1,2024-11-14_22h39.01.129,Task6_IntentionalBinding,2024.1.5,None,2024-11-14 22h39.09.722308 +0530
0.1,400,exp,8,7,87,9,1093.732843,,1093.718338,1093.732843,1098.732659,1100.732191,1100.732191,1101.084024,space,0.3500181,None,1101.084612,1101.199092,1101.512215,1101.498808,1101.498857,1101.512215,1101.512215,1101.512215,1103.883549,309,1,[2.3825047999998787],[2.382515599994804],756777,1,2024-11-14_22h39.01.129,Task6_IntentionalBinding,2024.1.5,None,2024-11-14 22h39.09.722308 +0530
0.7,400,exp,8,8,88,5,1103.899013,,1103.884505,1103.899013,1108.898656,1110.898501,1110.898501,1111.267351,space,0.3643517,None,1111.268124,1111.981872,1112.294537,1112.27876,1112.27881,1112.294537,1112.294537,1112.294537,1116.254827,250,1,[3.973477899999125],[3.973485399998026],756777,1,2024-11-14_22h39.01.129,Task6_IntentionalBinding,2024.1.5,None,2024-11-14 22h39.09.722308 +0530
0.4,1000,unexp,8,9,89,4,1116.265045,,1116.25554,1116.265045,1121.264608,1123.264595,1123.264595,1123.516014,space,0.2459871,None,1123.516659,1123.931143,1124.238834,1124.228605,1124.228641,1124.238834,1124.238834,1124.238834,1127.499378,240,1,[3.2688984000124037],[3.2689081999997143],756777,1,2024-11-14_22h39.01.129,Task6_IntentionalBinding,2024.1.5,None,2024-11-14 22h39.09.722308 +0530
0.4,1000,unexp,9,0,90,4,1127.514285,,1127.500352,1127.514285,1132.514064,1134.514057,1134.514057,1134.832377,space,0.307332,None,1134.832974,1135.247416,1135.559281,1135.548649,1135.548688,1135.559281,1135.559281,1135.559281,1138.065115,215,1,[2.5146194999979343],[2.514627399999881],756777,1,2024-11-14_22h39.01.129,Task6_IntentionalBinding,2024.1.5,None,2024-11-14 22h39.09.722308 +0530
0.7,400,exp,9,1,91,8,1138.080468,,1138.065782,1138.080468,1143.079943,1145.080018,1145.080018,1145.364797,space,0.2705661,None,1145.36523,1146.079931,1146.391082,1146.378654,1146.378702,1146.391082,1146.391082,1146.391082,1148.781235,350,1,[2.400703200008138],[2.400712700007716],756777,1,2024-11-14_22h39.01.129,Task6_IntentionalBinding,2024.1.5,None,2024-11-14 22h39.09.722308 +0530
0.1,1000,unexp,9,2,92,3,1148.79638,,1148.782115,1148.79638,1153.796263,1155.79641,1155.79641,1157.08103,space,1.2817728,None,1157.081525,1157.196204,1157.509147,1157.498544,1157.49857,1157.509147,1157.509147,1157.509147,1160.347616,680,1,[2.8471859999990556],[2.847194200003287],756777,1,2024-11-14_22h39.01.129,Task6_IntentionalBinding,2024.1.5,None,2024-11-14 22h39.09.722308 +0530
0.1,400,exp,9,3,93,9,1160.363008,,1160.34874,1160.363008,1165.362504,1167.362298,1167.362298,1168.380627,space,1.0135266,None,1168.381313,1168.495557,1168.809131,1168.798884,1168.798918,1168.809131,1168.809131,1168.809131,1171.370471,570,1,[2.569799700009753],[2.5698075000109384],756777,1,2024-11-14_22h39.01.129,Task6_IntentionalBinding,2024.1.5,None,2024-11-14 22h39.09.722308 +0530
0.4,1000,unexp,9,4,94,1,1171.378934,,1171.371161,1171.378934,1176.378631,1178.37858,1178.37858,1178.713409,space,0.3231131,None,1178.71414,1179.12835,1179.440558,1179.428722,1179.428772,1179.440558,1179.440558,1179.440558,1184.930969,573,1,[5.50020680000307],[5.500215899999603],756777,1,2024-11-14_22h39.01.129,Task6_IntentionalBinding,2024.1.5,None,2024-11-14 22h39.09.722308 +0530
0.1,400,exp,9,5,95,6,1184.945058,,1184.931683,1184.945058,1189.944866,1191.944723,1191.944723,1192.346136,space,0.3853572,None,1192.347052,1192.461088,1192.771134,1192.758614,1192.758661,1192.771134,1192.771134,1192.771134,1196.645809,589,1,[3.884667200007243],[3.8846788000082597],756777,1,2024-11-14_22h39.01.129,Task6_IntentionalBinding,2024.1.5,None,2024-11-14 22h39.09.722308 +0530
0.7,400,exp,9,6,96,5,1196.661019,,1196.646796,1196.661019,1201.660627,1203.660488,1203.660488,1203.945616,space,0.2726769,None,1203.946325,1204.660463,1204.972602,1204.958994,1204.959058,1204.972602,1204.972602,1204.972602,1209.244623,543,1,[4.283416299993405],[4.283425499990699],756777,1,2024-11-14_22h39.01.129,Task6_IntentionalBinding,2024.1.5,None,2024-11-14 22h39.09.722308 +0530
0.1,1000,unexp,9,7,97,0,1209.26047,,1209.245618,1209.26047,1214.25981,1216.259692,1216.259692,1216.611563,space,0.3382616,None,1216.612492,1216.726328,1217.038988,1217.028536,1217.028565,1217.038988,1217.038988,1217.038988,1226.843814,467,1,[9.81376220000675],[9.813769900007173],756777,1,2024-11-14_22h39.01.129,Task6_IntentionalBinding,2024.1.5,None,2024-11-14 22h39.09.722308 +0530
0.7,1000,unexp,9,8,98,2,1226.859345,,1226.844794,1226.859345,1231.859106,1233.859073,1233.859073,1234.210786,space,0.3464457,None,1234.21138,1234.925863,1235.240845,1235.228732,1235.228765,1235.240845,1235.240845,1235.240845,1238.810852,541,1,[3.5800234000053024],[3.580032600002596],756777,1,2024-11-14_22h39.01.129,Task6_IntentionalBinding,2024.1.5,None,2024-11-14 22h39.09.722308 +0530
0.4,400,exp,9,9,99,7,1238.826167,,1238.812081,1238.826167,1243.825115,1245.825024,1245.825024,1246.193173,space,0.3598224,None,1246.19381,1246.608272,1246.919517,1246.908644,1246.908693,1246.919517,1246.919517,1246.919517,1249.943781,658,1,[3.0327262000064366],[3.0327361000090605],756777,1,2024-11-14_22h39.01.129,Task6_IntentionalBinding,2024.1.5,None,2024-11-14 22h39.09.722308 +0530
0.7,400,exp,10,0,100,8,1249.958421,,1249.944724,1249.958421,1254.95798,1256.957949,1256.957949,1257.576016,space,0.6010092,None,1257.576719,1258.291388,1258.599266,1258.588645,1258.588688,1258.599266,1258.599266,1258.599266,1260.159915,478,1,[1.5687986000120873],[1.5688086000009207],756777,1,2024-11-14_22h39.01.129,Task6_IntentionalBinding,2024.1.5,None,2024-11-14 22h39.09.722308 +0530
0.1,400,exp,10,1,101,6,1260.174287,,1260.16123,1260.174287,1265.174419,1267.174287,1267.174287,1268.059116,space,0.8713381,None,1268.059918,1268.173856,1268.479574,1268.468557,1268.468604,1268.479574,1268.479574,1268.479574,1272.099289,671,1,[3.628843800004688],[3.6288556000072276],756777,1,2024-11-14_22h39.01.129,Task6_IntentionalBinding,2024.1.5,None,2024-11-14 22h39.09.722308 +0530
0.4,1000,unexp,10,2,102,4,1272.107392,,1272.10028,1272.107392,1277.107051,1279.107005,1279.107005,1279.657676,space,0.5355379,None,1279.658195,1280.073368,1280.37893,1280.368721,1280.36875,1280.37893,1280.37893,1280.37893,1282.94116,457,1,[2.5708178999921074],[2.57082690000243],756777,1,2024-11-14_22h39.01.129,Task6_IntentionalBinding,2024.1.5,None,2024-11-14 22h39.09.722308 +0530
0.1,1000,unexp,10,3,103,0,1282.956553,,1282.942038,1282.956553,1287.956288,1289.95639,1289.95639,1290.308302,space,0.3346335,None,1290.309204,1290.422981,1290.730667,1290.71828,1290.718337,1290.730667,1290.730667,1290.730667,1296.490718,567,1,[5.770292400004109],[5.770299099996919],756777,1,2024-11-14_22h39.01.129,Task6_IntentionalBinding,2024.1.5,None,2024-11-14 22h39.09.722308 +0530
0.4,1000,unexp,10,4,104,1,1296.506122,,1296.491389,1296.506122,1301.505829,1303.505515,1303.505515,1303.923892,space,0.4124966,None,1303.924517,1304.338885,1304.651446,1304.638342,1304.638387,1304.651446,1304.651446,1304.651446,1307.72888,490,1,[3.0883907999959774],[3.0884019999939483],756777,1,2024-11-14_22h39.01.129,Task6_IntentionalBinding,2024.1.5,None,2024-11-14 22h39.09.722308 +0530
0.1,1000,unexp,10,5,105,3,1307.738626,,1307.729994,1307.738626,1312.738397,1314.738585,1314.738585,1315.173146,space,0.4325036,None,1315.173686,1315.288227,1315.599306,1315.588448,1315.588487,1315.599306,1315.599306,1315.599306,1321.389284,587,1,[5.798729300004197],[5.798735699994722],756777,1,2024-11-14_22h39.01.129,Task6_IntentionalBinding,2024.1.5,None,2024-11-14 22h39.09.722308 +0530
0.7,400,exp,10,6,106,5,1321.405069,,1321.389999,1321.405069,1326.404211,1328.404369,1328.404369,1328.671986,space,0.2590331,None,1328.672571,1329.387704,1329.69911,1329.688396,1329.688437,1329.69911,1329.69911,1329.69911,1333.372563,349,1,[3.6824352000112412],[3.682442600009381],756777,1,2024-11-14_22h39.01.129,Task6_IntentionalBinding,2024.1.5,None,2024-11-14 22h39.09.722308 +0530
0.1,400,exp,10,7,107,9,1333.387687,,1333.373242,1333.387687,1338.387327,1340.387127,1340.387127,1340.672216,space,0.2754584,None,1340.67311,1340.786952,1341.100325,1341.0886,1341.088645,1341.100325,1341.100325,1341.100325,1344.854757,457,1,[3.7640589000075124],[3.764067600000999],756777,1,2024-11-14_22h39.01.129,Task6_IntentionalBinding,2024.1.5,None,2024-11-14 22h39.09.722308 +0530
0.7,1000,unexp,10,8,108,2,1344.870541,,1344.855855,1344.870541,1349.869831,1351.869928,1351.869928,1352.671803,space,0.7917348,None,1352.672904,1353.386263,1353.698438,1353.688605,1353.688634,1353.698438,1353.698438,1353.698438,1357.373884,547,1,[3.6834821999946143],[3.683493099990301],756777,1,2024-11-14_22h39.01.129,Task6_IntentionalBinding,2024.1.5,None,2024-11-14 22h39.09.722308 +0530
0.4,400,exp,10,9,109,7,1357.386074,,1357.37466,1357.386074,1362.386048,1364.385983,1364.385983,1365.404101,space,1.0036942,None,1365.404876,1365.819303,1366.131889,1366.118381,1366.118417,1366.131889,1366.131889,1366.131889,1369.969972,653,1,[3.849266000004718],[3.8492724999960046],756777,1,2024-11-14_22h39.01.129,Task6_IntentionalBinding,2024.1.5,None,2024-11-14 22h39.09.722308 +0530
0.4,400,exp,11,0,110,7,1369.985734,,1369.970768,1369.985734,1374.985394,1376.985307,1376.985307,1377.386629,space,0.3968741,None,1377.387212,1377.801777,1378.109293,1378.098409,1378.098438,1378.109293,1378.109293,1378.109293,1382.786169,650,1,[4.68612579999899],[4.686134499992477],756777,1,2024-11-14_22h39.01.129,Task6_IntentionalBinding,2024.1.5,None,2024-11-14 22h39.09.722308 +0530
0.7,400,exp,11,1,111,5,1382.801671,,1382.787134,1382.801671,1387.801451,1389.801208,1389.801208,1390.253058,space,0.4353632,None,1390.253888,1390.967764,1391.28111,1391.268439,1391.268488,1391.28111,1391.28111,1391.28111,1394.791262,449,1,[3.5204041999968467],[3.5204130000056466],756777,1,2024-11-14_22h39.01.129,Task6_IntentionalBinding,2024.1.5,None,2024-11-14 22h39.09.722308 +0530
0.1,1000,unexp,11,2,112,0,1394.801146,,1394.791964,1394.801146,1399.800683,1401.800602,1401.800602,1401.885735,space,0.0751478,None,1401.886502,1402.000696,1402.308302,1402.298222,1402.298252,1402.308302,1402.308302,1402.308302,1405.984906,100,1,[3.684957800011034],[3.6849647000053665],756777,1,2024-11-14_22h39.01.129,Task6_IntentionalBinding,2024.1.5,None,2024-11-14 22h39.09.722308 +0530
0.1,1000,unexp,11,3,113,3,1406.000533,,1405.985779,1406.000533,1411.000125,1413.000209,1413.000209,1414.151576,space,1.1454612,None,1414.152259,1414.266532,1414.578704,1414.568244,1414.568278,1414.578704,1414.578704,1414.578704,1417.741823,350,1,[3.171825400000671],[3.171833799991873],756777,1,2024-11-14_22h39.01.129,Task6_IntentionalBinding,2024.1.5,None,2024-11-14 22h39.09.722308 +0530
0.1,400,exp,11,4,114,6,1417.749881,,1417.742505,1417.749881,1422.749619,1424.749547,1424.749547,1425.150695,space,0.3846958,None,1425.151322,1425.266076,1425.581927,1425.568812,1425.56886,1425.581927,1425.581927,1425.581927,1428.008238,670,1,[2.437294199989992],[2.4373037999903318],756777,1,2024-11-14_22h39.01.129,Task6_IntentionalBinding,2024.1.5,None,2024-11-14 22h39.09.722308 +0530
0.7,400,exp,11,5,115,8,1428.015977,,1428.00889,1428.015977,1433.015694,1435.015875,1435.015875,1435.334226,space,0.3107108,None,1435.334933,1436.048793,1436.359971,1436.348149,1436.348184,1436.359971,1436.359971,1436.359971,1440.633679,420,1,[4.283936799998628],[4.283945200004382],756777,1,2024-11-14_22h39.01.129,Task6_IntentionalBinding,2024.1.5,None,2024-11-14 22h39.09.722308 +0530
0.1,400,exp,11,6,116,9,1440.649342,,1440.634483,1440.649342,1445.665071,1447.648333,1447.648333,1448.033221,space,0.3723369,None,1448.033813,1448.14837,1448.458846,1448.448134,1448.44819,1448.458846,1448.458846,1448.458846,1454.565841,230,1,[6.115864399995189],[6.115871599991806],756777,1,2024-11-14_22h39.01.129,Task6_IntentionalBinding,2024.1.5,None,2024-11-14 22h39.09.722308 +0530
0.4,1000,unexp,11,7,117,1,1454.581752,,1454.56653,1454.581752,1459.580921,1461.581526,1461.581526,1462.649691,space,1.0517707,None,1462.650491,1463.064432,1463.379258,1463.368681,1463.368713,1463.379258,1463.379258,1463.379258,1466.565221,630,1,[3.1948746999987634],[3.1948821999976644],756777,1,2024-11-14_22h39.01.129,Task6_IntentionalBinding,2024.1.5,None,2024-11-14 22h39.09.722308 +0530
0.4,1000,unexp,11,8,118,4,1466.580764,,1466.56605,1466.580764,1471.580945,1473.580439,1473.580439,1474.06518,space,0.4797242,None,1474.065854,1474.480275,1474.792949,1474.778325,1474.778398,1474.792949,1474.792949,1474.792949,1479.916122,490,1,[5.135320599991246],[5.1353316999884555],756777,1,2024-11-14_22h39.01.129,Task6_IntentionalBinding,2024.1.5,None,2024-11-14 22h39.09.722308 +0530
0.7,1000,unexp,11,9,119,2,1479.930194,,1479.917296,1479.930194,1484.929831,1486.929736,1486.929736,1487.314605,space,0.3811811,None,1487.315205,1488.030069,1488.339477,1488.328525,1488.328565,1488.339477,1488.339477,1488.339477,1493.114389,630,1,[4.783873099993798],[4.783880099988892],756777,1,2024-11-14_22h39.01.129,Task6_IntentionalBinding,2024.1.5,None,2024-11-14 22h39.09.722308 +0530
0.1,1000,unexp,12,0,120,3,1493.129803,,1493.115078,1493.129803,1498.129236,1500.129121,1500.129121,1501.43061,space,1.2865742,None,1501.431245,1501.545703,1501.857976,1501.848304,1501.848333,1501.857976,1501.857976,1501.857976,1505.14721,790,1,[3.2970539000089047],[3.297078400006285],756777,1,2024-11-14_22h39.01.129,Task6_IntentionalBinding,2024.1.5,None,2024-11-14 22h39.09.722308 +0530
0.1,400,exp,12,1,121,6,1505.162184,,1505.148375,1505.162184,1510.161892,1512.161829,1512.161829,1512.464016,space,0.2872606,None,1512.46491,1512.578519,1512.888932,1512.878072,1512.878114,1512.888932,1512.888932,1512.888932,1516.213264,510,1,[3.333218300002045],[3.3332276000001],756777,1,2024-11-14_22h39.01.129,Task6_IntentionalBinding,2024.1.5,None,2024-11-14 22h39.09.722308 +0530
0.7,400,exp,12,2,122,8,1516.228316,,1516.214155,1516.228316,1521.228027,1523.22803,1523.22803,1523.812679,space,0.5785219,None,1523.813229,1524.527961,1524.841416,1524.828431,1524.82847,1524.841416,1524.841416,1524.841416,1528.245696,900,1,[3.4153873000032036],[3.4153948000021046],756777,1,2024-11-14_22h39.01.129,Task6_IntentionalBinding,2024.1.5,None,2024-11-14 22h39.09.722308 +0530
0.4,1000,unexp,12,3,123,1,1528.261043,,1528.246367,1528.261043,1533.260763,1535.260611,1535.260611,1535.529055,space,0.2582306,None,1535.529811,1535.943942,1536.26173,1536.248549,1536.248596,1536.26173,1536.26173,1536.26173,1542.028546,660,1,[5.77752890001284],[5.777538400012418],756777,1,2024-11-14_22h39.01.129,Task6_IntentionalBinding,2024.1.5,None,2024-11-14 22h39.09.722308 +0530
0.1,400,exp,12,4,124,9,1542.043918,,1542.029483,1542.043918,1547.043334,1549.043388,1549.043388,1549.494748,space,0.4427352,None,1549.495248,1549.609879,1549.918265,1549.908564,1549.908602,1549.918265,1549.918265,1549.918265,1555.129336,530,1,[5.2189975999936],[5.21901029998844],756777,1,2024-11-14_22h39.01.129,Task6_IntentionalBinding,2024.1.5,None,2024-11-14 22h39.09.722308 +0530
0.4,400,exp,12,5,125,7,1555.142842,,1555.130137,1555.142842,1560.14248,1562.142872,1562.142872,1562.443874,space,0.288224,None,1562.444427,1562.859216,1563.171143,1563.158417,1563.158462,1563.171143,1563.171143,1563.171143,1567.278586,790,1,[4.1184184000012465],[4.118426400003955],756777,1,2024-11-14_22h39.01.129,Task6_IntentionalBinding,2024.1.5,None,2024-11-14 22h39.09.722308 +0530
0.7,400,exp,12,6,126,5,1567.292775,,1567.279263,1567.292775,1572.292064,1574.292107,1574.292107,1574.577084,space,0.2773803,None,1574.577655,1575.29195,1575.601789,1575.588113,1575.588164,1575.601789,1575.601789,1575.601789,1579.245144,620,1,[3.6547485000046436],[3.654757399999653],756777,1,2024-11-14_22h39.01.129,Task6_IntentionalBinding,2024.1.5,None,2024-11-14 22h39.09.722308 +0530
0.4,1000,unexp,12,7,127,4,1579.258496,,1579.246035,1579.258496,1584.25841,1586.25817,1586.25817,1586.560551,space,0.3005316,None,1586.56119,1586.974865,1587.288686,1587.278321,1587.278355,1587.288686,1587.288686,1587.288686,1592.032795,490,1,[4.7526801000058185],[4.75269369999296],756777,1,2024-11-14_22h39.01.129,Task6_IntentionalBinding,2024.1.5,None,2024-11-14 22h39.09.722308 +0530
0.7,1000,unexp,12,8,128,2,1592.041054,,1592.033805,1592.041054,1597.041043,1599.040785,1599.040785,1599.392475,space,0.3378999,None,1599.393303,1600.107396,1600.420039,1600.408508,1600.408555,1600.420039,1600.420039,1600.420039,1604.198937,470,1,[3.787829300010344],[3.787840800010599],756777,1,2024-11-14_22h39.01.129,Task6_IntentionalBinding,2024.1.5,None,2024-11-14 22h39.09.722308 +0530
0.1,1000,unexp,12,9,129,0,1604.207529,,1604.200004,1604.207529,1609.206912,1611.206824,1611.206824,1611.709043,space,0.4891189,None,1611.709804,1611.823706,1612.139347,1612.128234,1612.128277,1612.139347,1612.139347,1612.139347,1618.277719,640,1,[6.147390300000552],[6.147401700000046],756777,1,2024-11-14_22h39.01.129,Task6_IntentionalBinding,2024.1.5,None,2024-11-14 22h39.09.722308 +0530
0.7,400,exp,13,0,130,5,1618.290249,,1618.278665,1618.290249,1623.289522,1625.289466,1625.289466,1626.291639,space,0.999554,None,1626.292381,1627.006203,1627.319754,1627.308429,1627.308451,1627.319754,1627.319754,1627.319754,1629.274151,700,1,[1.9643867000122555],[1.9643939000088722],756777,1,2024-11-14_22h39.01.129,Task6_IntentionalBinding,2024.1.5,None,2024-11-14 22h39.09.722308 +0530
0.4,1000,unexp,13,1,131,1,1629.28935,,1629.274813,1629.28935,1634.2891,1636.289357,1636.289357,1636.8738,space,0.5723306,None,1636.874373,1637.288952,1637.600756,1637.588011,1637.588059,1637.600756,1637.600756,1637.600756,1641.573821,560,1,[3.9837675000017043],[3.983776699998998],756777,1,2024-11-14_22h39.01.129,Task6_IntentionalBinding,2024.1.5,None,2024-11-14 22h39.09.722308 +0530
0.1,1000,unexp,13,2,132,3,1641.589166,,1641.574785,1641.589166,1646.588318,1648.588772,1648.588772,1649.023946,space,0.4231264,None,1649.024746,1649.138323,1649.448762,1649.438193,1649.438225,1649.448762,1649.448762,1649.448762,1652.405977,320,1,[2.9662519999983488],[2.9662587999919197],756777,1,2024-11-14_22h39.01.129,Task6_IntentionalBinding,2024.1.5,None,2024-11-14 22h39.09.722308 +0530
0.4,400,exp,13,3,133,7,1652.422019,,1652.406959,1652.422019,1657.421333,1659.421134,1659.421134,1659.673013,space,0.2390971,None,1659.673831,1660.08788,1660.398909,1660.388264,1660.388299,1660.398909,1660.398909,1660.398909,1663.97273,330,1,[3.582513499990455],[3.5825264000013703],756777,1,2024-11-14_22h39.01.129,Task6_IntentionalBinding,2024.1.5,None,2024-11-14 22h39.09.722308 +0530
0.1,400,exp,13,4,134,6,1663.987682,,1663.974025,1663.987682,1668.987554,1670.987376,1670.987376,1671.422363,space,0.4258978,None,1671.422993,1671.537517,1671.850016,1671.837827,1671.837869,1671.850016,1671.850016,1671.850016,1677.421826,"570
",1,[5.5811935999954585],[5.581201599998167],756777,1,2024-11-14_22h39.01.129,Task6_IntentionalBinding,2024.1.5,None,2024-11-14 22h39.09.722308 +0530
0.1,400,exp,13,5,135,9,1677.437289,,1677.422538,1677.437289,1682.436606,1684.436669,1684.436669,1685.454527,space,1.0013196,None,1685.454918,1685.569845,1685.881405,1685.86834,1685.86839,1685.881405,1685.881405,1685.881405,1690.137804,680,1,[4.267029199996614],[4.2670375000016065],756777,1,2024-11-14_22h39.01.129,Task6_IntentionalBinding,2024.1.5,None,2024-11-14 22h39.09.722308 +0530
0.1,1000,unexp,13,6,136,0,1690.152954,,1690.138696,1690.152954,1695.152799,1697.15268,1697.15268,1697.938069,space,0.7729677,None,1697.939105,1698.052651,1698.359192,1698.34796,1698.348008,1698.359192,1698.359192,1698.359192,1700.920237,570,1,[2.570423099998152],[2.570429500003229],756777,1,2024-11-14_22h39.01.129,Task6_IntentionalBinding,2024.1.5,None,2024-11-14 22h39.09.722308 +0530
0.7,400,exp,13,7,137,8,1700.935894,,1700.920992,1700.935894,1705.935311,1707.935716,1707.935716,1708.670249,space,0.7188374,None,1708.670725,1709.385463,1709.698728,1709.688207,1709.688246,1709.698728,1709.698728,1709.698728,1713.186728,690,1,[3.496310100003029],[3.496317099998123],756777,1,2024-11-14_22h39.01.129,Task6_IntentionalBinding,2024.1.5,None,2024-11-14 22h39.09.722308 +0530
0.4,1000,unexp,13,8,138,4,1713.202131,,1713.187866,1713.202131,1718.201637,1720.201752,1720.201752,1720.569782,space,0.356223,None,1720.570615,1720.984761,1721.298892,1721.288311,1721.288351,1721.298892,1721.298892,1721.298892,1725.036298,990,1,[3.746158399997512],[3.7461716999969212],756777,1,2024-11-14_22h39.01.129,Task6_IntentionalBinding,2024.1.5,None,2024-11-14 22h39.09.722308 +0530
0.7,1000,unexp,13,9,139,2,1725.051399,,1725.037285,1725.051399,1730.051116,1732.050903,1732.050903,1732.769524,space,0.7040774,None,1732.770403,1733.484292,1733.798688,1733.788419,1733.788451,1733.798688,1733.798688,1733.798688,1737.585215,770,1,[3.7952361999923596],[3.7952438999927836],756777,1,2024-11-14_22h39.01.129,Task6_IntentionalBinding,2024.1.5,None,2024-11-14 22h39.09.722308 +0530
0.4,400,exp,14,0,140,7,1737.60079,,1737.586353,1737.60079,1742.600496,1744.600228,1744.600228,1747.601845,space,2.9845025,None,1747.602697,1748.0168,1748.340531,1748.318237,1748.318293,1748.340531,1748.340531,1748.340531,1751.352366,800,1,[3.031693799988716],[3.0317128999886336],756777,1,2024-11-14_22h39.01.129,Task6_IntentionalBinding,2024.1.5,None,2024-11-14 22h39.09.722308 +0530
0.7,400,exp,14,1,141,8,1751.3667,,1751.353533,1751.3667,1756.366037,1758.366005,1758.366005,1759.217308,space,0.8384303,None,1759.217979,1759.932607,1760.239944,1760.227998,1760.228046,1760.239944,1760.239944,1760.239944,1766.283463,650,1,[6.053333699994255],[6.053340600003139],756777,1,2024-11-14_22h39.01.129,Task6_IntentionalBinding,2024.1.5,None,2024-11-14 22h39.09.722308 +0530
0.1,1000,unexp,14,2,142,0,1766.299216,,1766.284161,1766.299216,1771.298601,1773.298767,1773.298767,1773.683199,space,0.3686657,None,1773.683775,1773.798562,1774.108586,1774.097935,1774.097982,1774.108586,1774.108586,1774.108586,1776.949507,780,1,[2.8496627999993507],[2.849669700008235],756777,1,2024-11-14_22h39.01.129,Task6_IntentionalBinding,2024.1.5,None,2024-11-14 22h39.09.722308 +0530
0.4,1000,unexp,14,3,143,4,1776.965125,,1776.95024,1776.965125,1781.964859,1783.964717,1783.964717,1784.266567,space,0.2910087,None,1784.267476,1784.681304,1784.99052,1784.978243,1784.978318,1784.99052,1784.99052,1784.99052,1793.048664,540,1,[8.067877099994803],[8.067884000003687],756777,1,2024-11-14_22h39.01.129,Task6_IntentionalBinding,2024.1.5,None,2024-11-14 22h39.09.722308 +0530
0.7,400,exp,14,4,144,5,1793.064345,,1793.049387,1793.064345,1798.063999,1800.063993,1800.063993,1800.482327,space,0.4091783,None,1800.483289,1801.197152,1801.508397,1801.497921,1801.49796,1801.508397,1801.508397,1801.508397,1803.915578,320,1,[2.415660700004082],[2.4156722000043374],756777,1,2024-11-14_22h39.01.129,Task6_IntentionalBinding,2024.1.5,None,2024-11-14 22h39.09.722308 +0530
0.1,1000,unexp,14,5,145,3,1803.930243,,1803.916749,1803.930243,1808.930056,1810.93002,1810.93002,1812.131892,space,1.1915809,None,1812.132762,1812.246789,1812.558435,1812.547726,1812.547773,1812.558435,1812.558435,1812.558435,1816.881528,520,1,[4.332045599992853],[4.332052199999453],756777,1,2024-11-14_22h39.01.129,Task6_IntentionalBinding,2024.1.5,None,2024-11-14 22h39.09.722308 +0530
0.7,1000,unexp,14,6,146,2,1816.896468,,1816.882286,1816.896468,1821.896213,1823.896353,1823.896353,1824.297532,space,0.3845104,None,1824.298113,1825.012677,1825.319016,1825.307892,1825.307939,1825.319016,1825.319016,1825.319016,1829.414193,420,1,[4.104429099999834],[4.104437199988752],756777,1,2024-11-14_22h39.01.129,Task6_IntentionalBinding,2024.1.5,None,2024-11-14 22h39.09.722308 +0530
0.1,400,exp,14,7,147,9,1829.42902,,1829.414846,1829.42902,1834.428984,1836.428784,1836.428784,1836.830332,space,0.3962842,None,1836.830995,1836.945692,1837.258517,1837.24825,1837.248305,1837.258517,1837.258517,1837.258517,1841.963474,360,1,[4.7135009999910835],[4.7135095999983605],756777,1,2024-11-14_22h39.01.129,Task6_IntentionalBinding,2024.1.5,None,2024-11-14 22h39.09.722308 +0530
0.4,1000,unexp,14,8,148,1,1841.978494,,1841.964131,1841.978494,1846.978668,1848.978356,1848.978356,1849.529853,space,0.5415955,None,1849.530614,1849.944811,1850.25827,1850.247819,1850.24785,1850.25827,1850.25827,1850.25827,1858.395518,450,1,[8.146185399993556],[8.146192599990172],756777,1,2024-11-14_22h39.01.129,Task6_IntentionalBinding,2024.1.5,None,2024-11-14 22h39.09.722308 +0530
0.1,400,exp,14,9,149,6,1858.411307,,1858.396235,1858.411307,1863.410702,1865.41087,1865.41087,1865.845535,space,0.4226406,None,1865.846174,1865.960779,1866.267873,1866.257531,1866.25757,1866.267873,1866.267873,1866.267873,1871.978529,560,1,[5.719353699998464],[5.719360500006587],756777,1,2024-11-14_22h39.01.129,Task6_IntentionalBinding,2024.1.5,None,2024-11-14 22h39.09.722308 +0530
0.1,400,exp,15,0,150,9,1871.993747,,1871.979194,1871.993747,1876.993607,1878.993265,1878.993265,1879.945286,space,0.93661,None,1879.946158,1880.059879,1880.368095,1880.357704,1880.357743,1880.368095,1880.368095,1880.368095,1883.727619,590,1,[3.3679399999964517],[3.367948899991461],756777,1,2024-11-14_22h39.01.129,Task6_IntentionalBinding,2024.1.5,None,2024-11-14 22h39.09.722308 +0530
0.1,400,exp,15,1,151,6,1883.743231,,1883.728372,1883.743231,1888.742872,1890.742779,1890.742779,1891.57865,space,0.8338723,None,1891.579435,1891.692666,1891.998868,1891.987967,1891.988009,1891.998868,1891.998868,1891.998868,1894.427286,780,1,[2.437304299994139],[2.43731249999837],756777,1,2024-11-14_22h39.01.129,Task6_IntentionalBinding,2024.1.5,None,2024-11-14 22h39.09.722308 +0530
0.4,1000,unexp,15,2,152,1,1894.442557,,1894.427985,1894.442557,1899.442289,1901.442294,1901.442294,1901.793657,space,0.3365367,None,1901.794345,1902.208882,1902.520533,1902.507822,1902.507868,1902.520533,1902.520533,1902.520533,1904.709724,670,1,[2.2001489999965997],[2.2001555999886477],756777,1,2024-11-14_22h39.01.129,Task6_IntentionalBinding,2024.1.5,None,2024-11-14 22h39.09.722308 +0530
0.1,1000,unexp,15,3,153,3,1904.725615,,1904.710392,1904.725615,1909.725198,1911.725231,1911.725231,1913.210324,space,1.4727961,None,1913.21104,1913.325048,1913.638223,1913.627753,1913.627788,1913.638223,1913.638223,1913.638223,1917.009898,900,1,[3.380242899991572],[3.3802507999935187],756777,1,2024-11-14_22h39.01.129,Task6_IntentionalBinding,2024.1.5,None,2024-11-14 22h39.09.722308 +0530
0.7,400,exp,15,4,154,8,1917.024934,,1917.010567,1917.024934,1922.024473,1924.02446,1924.02446,1924.925717,space,0.8930592,None,1924.92636,1925.641005,1925.947192,1925.937481,1925.937517,1925.947192,1925.947192,1925.947192,1928.842149,780,1,[2.903011400005198],[2.9030185000010533],756777,1,2024-11-14_22h39.01.129,Task6_IntentionalBinding,2024.1.5,None,2024-11-14 22h39.09.722308 +0530
0.1,1000,unexp,15,5,155,0,1928.857493,,1928.842817,1928.857493,1933.857503,1935.85724,1935.85724,1936.39205,space,0.5175331,None,1936.392835,1936.50716,1936.817872,1936.807756,1936.807805,1936.817872,1936.817872,1936.817872,1941.44105,510,1,[4.63162659999216],[4.631633699988015],756777,1,2024-11-14_22h39.01.129,Task6_IntentionalBinding,2024.1.5,None,2024-11-14 22h39.09.722308 +0530
0.4,1000,unexp,15,6,156,4,1941.456906,,1941.441751,1941.456906,1946.45672,1948.456681,1948.456681,1949.075141,space,0.616801,None,1949.075903,1949.489838,1949.796897,1949.787675,1949.787706,1949.796897,1949.796897,1949.796897,1954.190764,310,1,[4.401371400002972],[4.401381599993329],756777,1,2024-11-14_22h39.01.129,Task6_IntentionalBinding,2024.1.5,None,2024-11-14 22h39.09.722308 +0530
0.7,1000,unexp,15,7,157,2,1954.20629,,1954.191964,1954.20629,1959.206017,1961.205973,1961.205973,1961.907609,space,0.6847585,None,1961.908718,1962.622647,1962.928279,1962.917635,1962.917677,1962.928279,1962.928279,1962.928279,1970.390011,5=370,1,[7.4704556000069715],[7.47046290000435],756777,1,2024-11-14_22h39.01.129,Task6_IntentionalBinding,2024.1.5,None,2024-11-14 22h39.09.722308 +0530
0.4,400,exp,15,8,158,7,1970.405872,,1970.390689,1970.405872,1975.405191,1977.40535,1977.40535,1978.72326,space,1.3005707,None,1978.724316,1979.138422,1979.447943,1979.437771,1979.437841,1979.447943,1979.447943,1979.447943,1981.173474,560,1,[1.7341137000039453],[1.7341212000028463],756777,1,2024-11-14_22h39.01.129,Task6_IntentionalBinding,2024.1.5,None,2024-11-14 22h39.09.722308 +0530
0.7,400,exp,15,9,159,5,1981.18835,,1981.174157,1981.18835,1986.188115,1988.187939,1988.187939,1990.722804,space,2.5295562,None,1990.723602,1991.43785,1991.747827,1991.737615,1991.737668,1991.747827,1991.747827,1991.747827,1994.372863,890,1,[2.633176799994544],[2.6331849999987753],756777,1,2024-11-14_22h39.01.129,Task6_IntentionalBinding,2024.1.5,None,2024-11-14 22h39.09.722308 +0530
0.1,400,exp,16,0,160,9,1994.387438,,1994.373602,1994.387438,1999.38748,2001.387418,2001.387418,2001.839036,space,0.4411123,None,2001.839902,2001.954231,2002.267758,2002.257664,2002.257695,2002.267758,2002.267758,2002.267758,2007.171872,520,1,[4.912675900006434],[4.912683999995352],756777,1,2024-11-14_22h39.01.129,Task6_IntentionalBinding,2024.1.5,None,2024-11-14 22h39.09.722308 +0530
0.4,1000,unexp,16,1,161,1,2007.187182,,2007.172697,2007.187182,2012.186839,2014.186662,2014.186662,2014.604869,space,0.4034368,None,2014.605553,2015.019916,2015.328875,2015.317512,2015.317561,2015.328875,2015.328875,2015.328875,2021.837724,450,1,[6.517812699996284],[6.5178206999989925],756777,1,2024-11-14_22h39.01.129,Task6_IntentionalBinding,2024.1.5,None,2024-11-14 22h39.09.722308 +0530
0.4,400,exp,16,2,162,7,2021.853499,,2021.838456,2021.853499,2026.85264,2028.852581,2028.852581,2029.154664,space,0.2978639,None,2029.155541,2029.569309,2029.878142,2029.86757,2029.867616,2029.878142,2029.878142,2029.878142,2034.970615,570,1,[5.101438300000154],[5.10144759999821],756777,1,2024-11-14_22h39.01.129,Task6_IntentionalBinding,2024.1.5,None,2024-11-14 22h39.09.722308 +0530
0.1,1000,unexp,16,3,163,3,2034.985538,,2034.971518,2034.985538,2039.985282,2041.98543,2041.98543,2043.419653,space,1.4226306,None,2043.420232,2043.535132,2043.847071,2043.837257,2043.837283,2043.847071,2043.847071,2043.847071,2049.58593,960,1,[5.74729749999824],[5.747305400000187],756777,1,2024-11-14_22h39.01.129,Task6_IntentionalBinding,2024.1.5,None,2024-11-14 22h39.09.722308 +0530
0.7,400,exp,16,4,164,5,2049.602166,,2049.58663,2049.602166,2054.601156,2056.60114,2056.60114,2056.786791,space,None,None,2056.788014,2057.501437,2057.807299,2057.797214,2057.797262,2057.807299,2057.807299,2057.807299,2062.069204,350,1,[4.27026219999243],[4.270269199987524],756777,1,2024-11-14_22h39.01.129,Task6_IntentionalBinding,2024.1.5,None,2024-11-14 22h39.09.722308 +0530
0.7,1000,unexp,16,5,165,2,2062.084606,,2062.06999,2062.084606,2067.083935,2069.084368,2069.084368,2069.468979,space,0.373487,None,2069.469771,2070.183931,2070.501836,2070.487844,2070.487891,2070.501836,2070.501836,2070.501836,2074.901392,460,1,[4.41144670000358],[4.411454400004004],756777,1,2024-11-14_22h39.01.129,Task6_IntentionalBinding,2024.1.5,None,2024-11-14 22h39.09.722308 +0530
0.4,1000,unexp,16,6,166,4,2074.917269,,2074.902139,2074.917269,2079.916868,2081.916737,2081.916737,2082.268808,space,0.3430585,None,2082.269725,2082.683249,2083.000296,2082.987597,2082.987655,2083.000296,2083.000296,2083.000296,2086.150942,210,1,[3.161100900004385],[3.161107700012508],756777,1,2024-11-14_22h39.01.129,Task6_IntentionalBinding,2024.1.5,None,2024-11-14 22h39.09.722308 +0530
0.1,1000,unexp,16,7,167,0,2086.166735,,2086.151763,2086.166735,2091.166104,2093.166085,2093.166085,2093.834251,space,0.6657791,None,2093.834781,2093.949308,2094.257921,2094.24717,2094.247207,2094.257921,2094.257921,2094.257921,2099.633671,650,1,[5.384730999998283],[5.3847389000002295],756777,1,2024-11-14_22h39.01.129,Task6_IntentionalBinding,2024.1.5,None,2024-11-14 22h39.09.722308 +0530
0.7,400,exp,16,8,168,8,2099.64895,,2099.634338,2099.64895,2104.648723,2106.648699,2106.648699,2107.083687,space,0.4244104,None,2107.084379,2107.798672,2108.10787,2108.097342,2108.097401,2108.10787,2108.10787,2108.10787,2110.766952,430,1,[2.6674805999937234],[2.6674918999924557],756777,1,2024-11-14_22h39.01.129,Task6_IntentionalBinding,2024.1.5,None,2024-11-14 22h39.09.722308 +0530
0.1,400,exp,16,9,169,6,2110.782117,,2110.768053,2110.782117,2115.781615,2117.781464,2117.781464,2118.299387,space,0.5046723,None,2118.299904,2118.414772,2118.728122,2118.717474,2118.717514,2118.728122,2118.728122,2118.728122,2121.85152,370,1,[3.132265099993674],[3.132273199997144],756777,1,2024-11-14_22h39.01.129,Task6_IntentionalBinding,2024.1.5,None,2024-11-14 22h39.09.722308 +0530
0.7,400,exp,17,0,170,5,2121.86458,,2121.852182,2121.86458,2126.864355,2128.864305,2128.864305,2129.449042,space,0.5748419,None,2129.449738,2130.164248,2130.481126,2130.467874,2130.467922,2130.481126,2130.481126,2130.481126,2134.565096,790,1,[4.0951473000022816],[4.095154499998898],756777,1,2024-11-14_22h39.01.129,Task6_IntentionalBinding,2024.1.5,None,2024-11-14 22h39.09.722308 +0530
0.1,400,exp,17,1,171,9,2134.580962,,2134.565767,2134.580962,2139.580383,2141.580346,2141.580346,2141.982458,space,0.3966177,None,2141.983189,2142.09703,2142.407359,2142.397307,2142.397348,2142.407359,2142.407359,2142.407359,2145.898186,590,1,[3.4990678999893134],[3.4990775999904145],756777,1,2024-11-14_22h39.01.129,Task6_IntentionalBinding,2024.1.5,None,2024-11-14 22h39.09.722308 +0530
0.1,1000,unexp,17,2,172,0,2145.913635,,2145.899082,2145.913635,2150.913141,2152.913046,2152.913046,2153.598552,space,0.6771586,None,2153.599416,2153.713159,2154.017787,2154.007381,2154.007415,2154.017787,2154.017787,2154.017787,2158.913904,360,1,[4.904840499992133],[4.904847899990273],756777,1,2024-11-14_22h39.01.129,Task6_IntentionalBinding,2024.1.5,None,2024-11-14 22h39.09.722308 +0530
0.1,400,exp,17,3,173,6,2158.929507,,2158.914753,2158.929507,2163.92922,2165.929449,2165.929449,2167.130613,space,1.1867559,None,2167.131314,2167.24564,2167.560785,2167.54733,2167.547377,2167.560785,2167.560785,2167.560785,2170.897822,780,1,[3.348326099992846],[3.348335100003169],756777,1,2024-11-14_22h39.01.129,Task6_IntentionalBinding,2024.1.5,None,2024-11-14 22h39.09.722308 +0530
0.4,1000,unexp,17,4,174,1,2170.912227,,2170.898483,2170.912227,2175.911894,2177.911888,2177.911888,2178.263466,space,0.3392715,None,2178.26429,2178.678338,2178.991067,2178.97755,2178.9776,2178.991067,2178.991067,2178.991067,2182.196221,530,1,[3.216461599993636],[3.2164705999894068],756777,1,2024-11-14_22h39.01.129,Task6_IntentionalBinding,2024.1.5,None,2024-11-14 22h39.09.722308 +0530
0.7,400,exp,17,5,175,8,2182.21157,,2182.197055,2182.21157,2187.211427,2189.211188,2189.211188,2190.445965,space,1.2255063,None,2190.446544,2191.16141,2191.46783,2191.457276,2191.457322,2191.46783,2191.46783,2191.46783,2193.495467,990,1,[2.036162600008538],[2.036169200000586],756777,1,2024-11-14_22h39.01.129,Task6_IntentionalBinding,2024.1.5,None,2024-11-14 22h39.09.722308 +0530
0.4,400,exp,17,6,176,7,2193.511124,,2193.49617,2193.511124,2198.510638,2200.510845,2200.510845,2200.928622,space,0.4110852,None,2200.929115,2201.344053,2201.660823,2201.647588,2201.647643,2201.660823,2201.660823,2201.660823,2205.463228,770,1,[3.8136564000014914],[3.813664700006484],756777,1,2024-11-14_22h39.01.129,Task6_IntentionalBinding,2024.1.5,None,2024-11-14 22h39.09.722308 +0530
0.1,1000,unexp,17,7,177,3,2205.477273,,2205.463948,2205.477273,2210.476848,2212.476806,2212.476806,2213.028009,space,0.5351483,None,2213.028503,2213.143424,2213.458275,2213.447419,2213.447461,2213.458275,2213.458275,2213.458275,2216.894437,430,1,[3.4450913000036962],[3.445100099997944],756777,1,2024-11-14_22h39.01.129,Task6_IntentionalBinding,2024.1.5,None,2024-11-14 22h39.09.722308 +0530
0.4,1000,unexp,17,8,178,4,2216.909866,,2216.895303,2216.909866,2221.909725,2223.909671,2223.909671,2224.144503,space,0.2243161,None,2224.145232,2224.559542,2224.867235,2224.857136,2224.85718,2224.867235,2224.867235,2224.867235,2229.310288,610,1,[4.451061600004323],[4.451068700000178],756777,1,2024-11-14_22h39.01.129,Task6_IntentionalBinding,2024.1.5,None,2024-11-14 22h39.09.722308 +0530
0.7,1000,unexp,17,9,179,2,2229.326026,,2229.310954,2229.326026,2234.325651,2236.32608,2236.32608,2236.527496,space,0.1915791,None,2236.528291,2237.242225,2237.549397,2237.536932,2237.53698,2237.549397,2237.549397,2237.549397,2241.945024,120,1,[4.406031299993629],[4.406040899993968],756777,1,2024-11-14_22h39.01.129,Task6_IntentionalBinding,2024.1.5,None,2024-11-14 22h39.09.722308 +0530
0.1,400,exp,18,0,180,9,2241.958849,,2241.94578,2241.958849,2246.958471,2248.958318,2248.958318,2249.326713,space,0.3600413,None,2249.327526,2249.441539,2249.748162,2249.737277,2249.737335,2249.748162,2249.748162,2249.748162,2252.359193,250,1,[2.6198727000009967],[2.6198791000060737],756777,1,2024-11-14_22h39.01.129,Task6_IntentionalBinding,2024.1.5,None,2024-11-14 22h39.09.722308 +0530
0.7,400,exp,18,1,181,5,2252.374912,,2252.359864,2252.374912,2257.374595,2259.374633,2259.374633,2260.059317,space,0.667344,None,2260.059982,2260.774491,2261.088256,2261.077145,2261.077187,2261.088256,2261.088256,2261.088256,2265.25838,580,1,[4.179293699999107],[4.179302300006384],756777,1,2024-11-14_22h39.01.129,Task6_IntentionalBinding,2024.1.5,None,2024-11-14 22h39.09.722308 +0530
0.1,400,exp,18,2,182,6,2265.274601,,2265.259309,2265.274601,2270.273854,2272.273963,2272.273963,2272.858628,space,0.580184,None,2272.859179,2272.973705,2273.290667,2273.277639,2273.277689,2273.290667,2273.290667,2273.290667,2277.95832,430,1,[4.678536200008239],[4.678545700007817],756777,1,2024-11-14_22h39.01.129,Task6_IntentionalBinding,2024.1.5,None,2024-11-14 22h39.09.722308 +0530
0.7,1000,unexp,18,3,183,2,2277.973728,,2277.959143,2277.973728,2282.973404,2284.973189,2284.973189,2285.774487,space,0.7921155,None,2285.775118,2286.489719,2286.797905,2286.787215,2286.787261,2286.797905,2286.797905,2286.797905,2298.673707,"810
",1,[11.88468119999743],[11.884688100006315],756777,1,2024-11-14_22h39.01.129,Task6_IntentionalBinding,2024.1.5,None,2024-11-14 22h39.09.722308 +0530
0.1,1000,unexp,18,4,184,0,2298.689423,,2298.67437,2298.689423,2303.688984,2305.688805,2305.688805,2306.540213,space,0.8364845,None,2306.540768,2306.655363,2306.968049,2306.95711,2306.957153,2306.968049,2306.968049,2306.968049,2309.957397,760,1,[2.9980072999896947],[2.9980182999861427],756777,1,2024-11-14_22h39.01.129,Task6_IntentionalBinding,2024.1.5,None,2024-11-14 22h39.09.722308 +0530
0.4,400,exp,18,5,185,7,2309.972303,,2309.958674,2309.972303,2314.971696,2316.971767,2316.971767,2317.324045,space,0.3503179,None,2317.324825,2317.73815,2318.049036,2318.037396,2318.037446,2318.049036,2318.049036,2318.049036,2321.239097,640,1,[3.1999212999944575],[3.1999286000063876],756777,1,2024-11-14_22h39.01.129,Task6_IntentionalBinding,2024.1.5,None,2024-11-14 22h39.09.722308 +0530
0.4,1000,unexp,18,6,186,4,2321.254664,,2321.239954,2321.254664,2326.254394,2328.254513,2328.254513,2328.756109,space,0.4914655,None,2328.756805,2329.171021,2329.479829,2329.467062,2329.467111,2329.479829,2329.479829,2329.479829,2332.822995,"320
",1,[3.3538087000051746],[3.3538179000024684],756777,1,2024-11-14_22h39.01.129,Task6_IntentionalBinding,2024.1.5,None,2024-11-14 22h39.09.722308 +0530
0.7,400,exp,18,7,187,8,2332.837396,,2332.823855,2332.837396,2337.837272,2339.837348,2339.837348,2340.372149,space,0.5182555,None,2340.372971,2341.087032,2341.397664,2341.387002,2341.387046,2341.397664,2341.397664,2341.397664,2344.354936,890,1,[2.9659975999966264],[2.9660046999924816],756777,1,2024-11-14_22h39.01.129,Task6_IntentionalBinding,2024.1.5,None,2024-11-14 22h39.09.722308 +0530
0.4,1000,unexp,18,8,188,1,2344.370505,,2344.355649,2344.370505,2349.369932,2351.369891,2351.369891,2351.871156,space,0.4881035,None,2351.871745,2352.286877,2352.598673,2352.586968,2352.587017,2352.598673,2352.598673,2352.598673,2357.487634,260,1,[4.898746000006213],[4.898753300003591],756777,1,2024-11-14_22h39.01.129,Task6_IntentionalBinding,2024.1.5,None,2024-11-14 22h39.09.722308 +0530
0.1,1000,unexp,18,9,189,3,2357.502861,,2357.488354,2357.502861,2362.502634,2364.502553,2364.502553,2365.22088,space,0.7105302,None,2365.221694,2365.335913,2365.646966,2365.637071,2365.637107,2365.646966,2365.646966,2365.646966,2368.453739,540,1,[2.814861999999266],[2.8148709000088274],756777,1,2024-11-14_22h39.01.129,Task6_IntentionalBinding,2024.1.5,None,2024-11-14 22h39.09.722308 +0530
0.4,1000,unexp,19,0,190,1,2368.469045,,2368.454488,2368.469045,2373.468788,2375.468768,2375.468768,2377.020514,space,1.543904,None,2377.021334,2377.435152,2377.747907,2377.737319,2377.737401,2377.747907,2377.747907,2377.747907,2385.452644,950,1,[7.713633100007428],[7.7136405000055674],756777,1,2024-11-14_22h39.01.129,Task6_IntentionalBinding,2024.1.5,None,2024-11-14 22h39.09.722308 +0530
0.1,400,exp,19,1,191,9,2385.468353,,2385.453556,2385.468353,2390.46788,2392.467988,2392.467988,2393.152367,space,0.6693039,None,2393.15298,2393.267891,2393.580083,2393.567038,2393.567095,2393.580083,2393.580083,2393.580083,2399.33687,740,1,[5.767222700000275],[5.767244800008484],756777,1,2024-11-14_22h39.01.129,Task6_IntentionalBinding,2024.1.5,None,2024-11-14 22h39.09.722308 +0530
0.7,400,exp,19,2,192,5,2399.35082,,2399.338073,2399.35082,2404.350396,2406.350536,2406.350536,2406.969477,space,0.6109962,None,2406.97029,2407.683716,2408.000442,2407.987374,2407.987428,2408.000442,2408.000442,2408.000442,2411.301241,660,1,[3.311725799998385],[3.311733499998809],756777,1,2024-11-14_22h39.01.129,Task6_IntentionalBinding,2024.1.5,None,2024-11-14 22h39.09.722308 +0530
0.1,400,exp,19,3,193,6,2411.317032,,2411.301909,2411.317032,2416.316662,2418.316626,2418.316626,2418.784949,space,0.4581569,None,2418.785746,2418.899857,2419.208371,2419.197261,2419.197308,2419.208371,2419.208371,2419.208371,2423.301215,590,1,[4.101785899998504],[4.1017961999896215],756777,1,2024-11-14_22h39.01.129,Task6_IntentionalBinding,2024.1.5,None,2024-11-14 22h39.09.722308 +0530
0.1,1000,unexp,19,4,194,0,2423.316239,,2423.302051,2423.316239,2428.3162,2430.315993,2430.315993,2431.467809,space,1.142646,None,2431.468617,2431.58256,2431.88729,2431.876798,2431.876855,2431.88729,2431.88729,2431.88729,2435.733492,570,1,[3.8548910999961663],[3.854899199999636],756777,1,2024-11-14_22h39.01.129,Task6_IntentionalBinding,2024.1.5,None,2024-11-14 22h39.09.722308 +0530
0.4,400,exp,19,5,195,7,2435.749155,,2435.73415,2435.749155,2440.748738,2442.749037,2442.749037,2442.984456,space,0.2333148,None,2442.985294,2443.398716,2443.706124,2443.696841,2443.696895,2443.706124,2443.706124,2443.706124,2449.616744,390,1,[5.918138299995917],[5.918146299998625],756777,1,2024-11-14_22h39.01.129,Task6_IntentionalBinding,2024.1.5,None,2024-11-14 22h39.09.722308 +0530
0.1,1000,unexp,19,6,196,3,2449.631944,,2449.617461,2449.631944,2454.631405,2456.63149,2456.63149,2457.116554,space,0.4783147,None,2457.117344,2457.23125,2457.537295,2457.526677,2457.526718,2457.537295,2457.537295,2457.537295,2460.932941,440,1,[3.4043762999936007],[3.4043853000039235],756777,1,2024-11-14_22h39.01.129,Task6_IntentionalBinding,2024.1.5,None,2024-11-14 22h39.09.722308 +0530
0.7,400,exp,19,7,197,8,2460.947716,,2460.933777,2460.947716,2465.947553,2467.947534,2467.947534,2468.84923,space,0.889745,None,2468.849974,2469.564228,2469.878412,2469.867307,2469.867361,2469.878412,2469.878412,2469.878412,2472.715077,450,1,[2.845732100002351],[2.845742600009544],756777,1,2024-11-14_22h39.01.129,Task6_IntentionalBinding,2024.1.5,None,2024-11-14 22h39.09.722308 +0530
0.4,1000,unexp,19,8,198,4,2472.730462,,2472.716288,2472.730462,2477.730193,2479.730319,2479.730319,2480.448305,space,0.7027359,None,2480.449056,2480.863507,2481.178126,2481.167241,2481.167285,2481.178126,2481.178126,2481.178126,2487.432629,890,1,[6.2632940000039525],[6.263306699998793],756777,1,2024-11-14_22h39.01.129,Task6_IntentionalBinding,2024.1.5,None,2024-11-14 22h39.09.722308 +0530
0.7,1000,unexp,19,9,199,2,2487.446663,,2487.433301,2487.446663,2492.44628,2494.446167,2494.446167,2494.914695,space,0.4557218,None,2494.915532,2495.629356,2495.939796,2495.926808,2495.926865,2495.939796,2495.939796,2495.939796,2498.647135,770,1,[2.718065100008971],[2.718074600008549],756777,1,2024-11-14_22h39.01.129,Task6_IntentionalBinding,2024.1.5,None,2024-11-14 22h39.09.722308 +0530
0.4,1000,unexp,20,0,200,1,2498.662671,,2498.648149,2498.662671,2503.662316,2505.662324,2505.662324,2506.38111,space,0.7168838,None,2506.381996,2506.795549,2507.10747,2507.097071,2507.097113,2507.10747,2507.10747,2507.10747,2510.746426,690,1,[3.6475533000048017],[3.647560400000657],756777,1,2024-11-14_22h39.01.129,Task6_IntentionalBinding,2024.1.5,None,2024-11-14 22h39.09.722308 +0530
0.1,1000,unexp,20,1,201,0,2510.761978,,2510.74721,2510.761978,2515.761682,2517.761646,2517.761646,2518.662864,space,0.8920986,None,2518.66348,2518.778117,2519.089869,2519.077289,2519.077315,2519.089869,2519.089869,2519.089869,2524.946971,820,1,[5.867998700006865],[5.86801320000086],756777,1,2024-11-14_22h39.01.129,Task6_IntentionalBinding,2024.1.5,None,2024-11-14 22h39.09.722308 +0530
0.4,1000,unexp,20,2,202,4,2524.961174,,2524.948161,2524.961174,2529.961133,2531.961013,2531.961013,2532.42934,space,0.4615231,None,2532.430007,2532.844229,2533.162675,2533.147152,2533.147201,2533.162675,2533.162675,2533.162675,2537.462008,550,1,[4.312772900011623],[4.312779900006717],756777,1,2024-11-14_22h39.01.129,Task6_IntentionalBinding,2024.1.5,None,2024-11-14 22h39.09.722308 +0530
0.7,400,exp,20,3,203,8,2537.477687,,2537.462682,2537.477687,2542.477013,2544.476944,2544.476944,2544.862088,space,0.3802681,None,2544.862886,2545.576909,2545.88663,2545.876614,2545.87666,2545.88663,2545.88663,2545.88663,2551.8451,430,1,[5.966727699997136],[5.966736000002129],756777,1,2024-11-14_22h39.01.129,Task6_IntentionalBinding,2024.1.5,None,2024-11-14 22h39.09.722308 +0530
0.4,400,exp,20,4,204,7,2551.860132,,2551.845789,2551.860132,2556.859575,2558.859483,2558.859483,2559.211419,space,0.3461024,None,2559.212181,2559.626187,2559.939501,2559.92694,2559.926988,2559.939501,2559.939501,2559.939501,2564.860639,740,1,[4.931547799991677],[4.931556699986686],756777,1,2024-11-14_22h39.01.129,Task6_IntentionalBinding,2024.1.5,None,2024-11-14 22h39.09.722308 +0530
0.7,400,exp,20,5,205,5,2564.876123,,2564.861444,2564.876123,2569.875621,2571.875631,2571.875631,2573.243928,space,1.3648827,None,2573.244696,2573.958898,2574.26739,2574.256695,2574.256733,2574.26739,2574.26739,2574.26739,2576.727944,870,1,[2.4694504999933997],[2.4694603999960236],756777,1,2024-11-14_22h39.01.129,Task6_IntentionalBinding,2024.1.5,None,2024-11-14 22h39.09.722308 +0530
0.1,1000,unexp,20,6,206,3,2576.742263,,2576.728603,2576.742263,2581.741704,2583.741625,2583.741625,2584.593438,space,0.8361894,None,2584.594117,2584.708277,2585.018612,2585.007031,2585.007082,2585.018612,2585.018612,2585.018612,2589.077407,"690
",1,[4.06844689999707],[4.068455900007393],756777,1,2024-11-14_22h39.01.129,Task6_IntentionalBinding,2024.1.5,None,2024-11-14 22h39.09.722308 +0530
0.7,1000,unexp,20,7,207,2,2589.091731,,2589.078145,2589.091731,2594.091176,2596.091094,2596.091094,2596.559323,space,0.4509604,None,2596.560152,2597.274478,2597.588028,2597.576767,2597.576806,2597.588028,2597.588028,2597.588028,2601.809491,130,1,[4.2308289000066],[4.23083719999704],756777,1,2024-11-14_22h39.01.129,Task6_IntentionalBinding,2024.1.5,None,2024-11-14 22h39.09.722308 +0530
0.1,400,exp,20,8,208,6,2601.824406,,2601.810157,2601.824406,2606.823814,2608.823779,2608.823779,2609.575062,space,0.7482895,None,2609.575543,2609.675242,,2609.977137,2609.977212,2609.988223,2609.988223,2609.988223,2612.959091,420,1,[2.9798471000103746],[2.9798546000092756],756777,1,2024-11-14_22h39.01.129,Task6_IntentionalBinding,2024.1.5,None,2024-11-14 22h39.09.722308 +0530
0.1,400,exp,20,9,209,9,2612.973572,,2612.959827,2612.973572,2617.973281,2619.973264,2619.973264,2620.974958,space,0.9894234,None,2620.975767,2621.089769,2621.397461,2621.386515,2621.386552,2621.397461,2621.397461,2621.397461,2629.990378,570,1,[8.602232999997796],[8.602239800005918],756777,1,2024-11-14_22h39.01.129,Task6_IntentionalBinding,2024.1.5,None,2024-11-14 22h39.09.722308 +0530
0.4,400,exp,21,0,210,7,2630.006254,,2629.991034,2630.006254,2635.005908,2637.005816,2637.005816,2637.556859,space,0.5350126,None,2637.557352,2637.972177,2638.277014,2638.266398,2638.266449,2638.277014,2638.277014,2638.277014,2642.606679,640,1,[4.338429500014172],[4.338438500009943],756777,1,2024-11-14_22h39.01.129,Task6_IntentionalBinding,2024.1.5,None,2024-11-14 22h39.09.722308 +0530
0.1,400,exp,21,1,211,6,2642.62181,,2642.607569,2642.62181,2647.621844,2649.621769,2649.621769,2651.589501,space,1.9506582,None,2651.590005,2651.704877,2652.017336,2652.006556,2652.0066,2652.017336,2652.017336,2652.017336,2657.840284,980,1,[5.8318109000101686],[5.831823500004248],756777,1,2024-11-14_22h39.01.129,Task6_IntentionalBinding,2024.1.5,None,2024-11-14 22h39.09.722308 +0530
0.7,400,exp,21,2,212,5,2657.854718,,2657.841368,2657.854718,2662.854393,2664.854189,2664.854189,2665.206036,space,0.3503364,None,2665.206555,2665.920952,2666.228777,2666.216657,2666.216705,2666.228777,2666.228777,2666.228777,2670.772607,120,1,[4.5539529000088805],[4.553960899997037],756777,1,2024-11-14_22h39.01.129,Task6_IntentionalBinding,2024.1.5,None,2024-11-14 22h39.09.722308 +0530
0.4,1000,unexp,21,3,213,4,2670.787807,,2670.77327,2670.787807,2675.787368,2677.787643,2677.787643,2678.422615,space,0.633092,None,2678.423395,2678.83682,2679.148738,2679.136945,2679.136995,2679.148738,2679.148738,2679.148738,2683.887989,190,1,[4.749023599986685],[4.7490308999986155],756777,1,2024-11-14_22h39.01.129,Task6_IntentionalBinding,2024.1.5,None,2024-11-14 22h39.09.722308 +0530
0.1,1000,unexp,21,4,214,3,2683.903595,,2683.88865,2683.903595,2688.903005,2690.903133,2690.903133,2692.171247,space,1.2663334,None,2692.171805,2692.286227,2692.596281,2692.586409,2692.586443,2692.596281,2692.596281,2692.596281,2696.020647,630,1,[3.4326987999957055],[3.432706599996891],756777,1,2024-11-14_22h39.01.129,Task6_IntentionalBinding,2024.1.5,None,2024-11-14 22h39.09.722308 +0530
0.1,400,exp,21,5,215,9,2696.036129,,2696.021303,2696.036129,2701.03578,2703.035896,2703.035896,2703.104176,space,0.0569028,None,2703.104991,2703.219019,2703.528533,2703.516462,2703.516486,2703.528533,2703.528533,2703.528533,2709.003614,100,1,[5.485548700002255],[5.485571600002004],756777,1,2024-11-14_22h39.01.129,Task6_IntentionalBinding,2024.1.5,None,2024-11-14 22h39.09.722308 +0530
0.1,1000,unexp,21,6,216,0,2709.019182,,2709.004593,2709.019182,2714.018833,2716.018472,2716.018472,2717.803538,space,1.780338,None,2717.804129,2717.918295,2718.229691,2718.216469,2718.21659,2718.229691,2718.229691,2718.229691,2720.902755,770,1,[2.6839507999975467],[2.683961000002455],756777,1,2024-11-14_22h39.01.129,Task6_IntentionalBinding,2024.1.5,None,2024-11-14 22h39.09.722308 +0530
0.7,1000,unexp,21,7,217,2,2720.91815,,2720.903649,2720.91815,2725.917879,2727.917763,2727.917763,2729.452505,space,1.522216,None,2729.453116,2730.167745,2730.477045,2730.466472,2730.466508,2730.477045,2730.477045,2730.477045,2738.118701,650,1,[7.6506158000120195],[7.650623400011682],756777,1,2024-11-14_22h39.01.129,Task6_IntentionalBinding,2024.1.5,None,2024-11-14 22h39.09.722308 +0530
0.4,1000,unexp,21,8,218,1,2738.133776,,2738.119382,2738.133776,2743.133845,2745.133679,2745.133679,2746.151656,space,1.0052392,None,2746.152247,2746.566931,2746.876353,2746.866767,2746.866797,2746.876353,2746.876353,2746.876353,2750.820442,300,1,[3.9520120000088355],[3.952018500000122],756777,1,2024-11-14_22h39.01.129,Task6_IntentionalBinding,2024.1.5,None,2024-11-14 22h39.09.722308 +0530
0.7,400,exp,21,9,219,8,2750.833752,,2750.821096,2750.833752,2755.833023,2757.833074,2757.833074,2758.151389,space,0.3083648,None,2758.152214,2758.866246,2759.177077,2759.16629,2759.166332,2759.177077,2759.177077,2759.177077,2762.750814,790,1,[3.582465300001786],[3.5824758999951882],756777,1,2024-11-14_22h39.01.129,Task6_IntentionalBinding,2024.1.5,None,2024-11-14 22h39.09.722308 +0530
0.1,400,exp,22,0,220,6,2762.766211,,2762.751891,2762.766211,2767.765943,2769.765782,2769.765782,2770.217743,space,0.4464801,None,2770.218583,2770.332372,2770.646949,2770.636447,2770.636468,2770.646949,2770.646949,2770.646949,2775.417438,550,1,[4.779766299994662],[4.779775599992718],756777,1,2024-11-14_22h39.01.129,Task6_IntentionalBinding,2024.1.5,None,2024-11-14 22h39.09.722308 +0530
0.4,1000,unexp,22,1,221,1,2775.431956,,2775.418217,2775.431956,2780.43187,2782.431899,2782.431899,2782.950147,space,0.5110528,None,2782.950884,2783.365017,2783.680221,2783.666745,2783.666794,2783.680221,2783.680221,2783.680221,2790.732237,330,1,[7.063385699992068],[7.063393399992492],756777,1,2024-11-14_22h39.01.129,Task6_IntentionalBinding,2024.1.5,None,2024-11-14 22h39.09.722308 +0530
0.4,400,exp,22,2,222,7,2790.74827,,2790.732921,2790.74827,2795.748045,2797.747707,2797.747707,2798.21623,space,0.462055,None,2798.217043,2798.630966,2798.935911,2798.926241,2798.926272,2798.935911,2798.935911,2798.935911,2803.081711,310,1,[4.153953100001672],[4.153961800009711],756777,1,2024-11-14_22h39.01.129,Task6_IntentionalBinding,2024.1.5,None,2024-11-14 22h39.09.722308 +0530
0.7,400,exp,22,3,223,8,2803.097551,,2803.082565,2803.097551,2808.09741,2810.097227,2810.097227,2810.815085,space,0.7018952,None,2810.815606,2811.530289,2811.837203,2811.82654,2811.826578,2811.837203,2811.837203,2811.837203,2815.199199,710,1,[3.370215700007975],[3.3702597000083188],756777,1,2024-11-14_22h39.01.129,Task6_IntentionalBinding,2024.1.5,None,2024-11-14 22h39.09.722308 +0530
0.1,400,exp,22,4,224,9,2815.213558,,2815.200561,2815.213558,2820.213212,2822.213232,2822.213232,2822.348342,space,0.1265548,None,2822.349105,2822.46309,2822.776735,2822.766792,2822.766825,2822.776735,2822.776735,2822.776735,2825.89863,450,1,[3.1301491999911377],[3.130159199994523],756777,1,2024-11-14_22h39.01.129,Task6_IntentionalBinding,2024.1.5,None,2024-11-14 22h39.09.722308 +0530
0.1,1000,unexp,22,5,225,0,2825.913058,,2825.899423,2825.913058,2830.912665,2832.912794,2832.912794,2833.7973,space,0.8678305,None,2833.797845,2833.912662,2834.230017,2834.216671,2834.216738,2834.230017,2834.230017,2834.230017,2838.380301,670,1,[4.161586100002751],[4.16159429999243],756777,1,2024-11-14_22h39.01.129,Task6_IntentionalBinding,2024.1.5,None,2024-11-14 22h39.09.722308 +0530
0.7,400,exp,22,6,226,5,2838.395711,,2838.380966,2838.395711,2843.395419,2845.395347,2845.395347,2845.781251,space,0.383695,None,2845.782084,2846.495275,2846.808143,2846.796413,2846.79646,2846.808143,2846.808143,2846.808143,2851.829619,650,1,[5.031285000004573],[5.031293599997298],756777,1,2024-11-14_22h39.01.129,Task6_IntentionalBinding,2024.1.5,None,2024-11-14 22h39.09.722308 +0530
0.4,1000,unexp,22,7,227,4,2851.845105,,2851.830338,2851.845105,2856.844851,2858.844663,2858.844663,2859.146323,space,0.2957469,None,2859.147078,2859.561317,2859.866306,2859.856377,2859.856416,2859.866306,2859.866306,2859.866306,2866.978924,320,1,[7.12104260000342],[7.121050499990815],756777,1,2024-11-14_22h39.01.129,Task6_IntentionalBinding,2024.1.5,None,2024-11-14 22h39.09.722308 +0530
0.7,1000,unexp,22,8,228,2,2866.99473,,2866.979591,2866.99473,2871.993958,2873.99392,2873.99392,2874.645587,space,0.63949,None,2874.646413,2875.36042,2875.669628,2875.656384,2875.656434,2875.669628,2875.669628,2875.669628,2876.561394,,1,[0.9029853000101866],[0.9029924000060419],756777,1,2024-11-14_22h39.01.129,Task6_IntentionalBinding,2024.1.5,None,2024-11-14 22h39.09.722308 +0530
0.1,1000,unexp,22,9,229,3,2876.577311,,2876.562194,2876.577311,2881.57708,2883.577033,2883.577033,2883.811571,space,0.2243738,None,2883.812174,2883.926706,2884.238427,2884.226261,2884.226309,2884.238427,2884.238427,2884.238427,2887.330286,530,1,[3.1019070000038482],[3.1019155000103638],756777,1,2024-11-14_22h39.01.129,Task6_IntentionalBinding,2024.1.5,None,2024-11-14 22h39.09.722308 +0530
0.1,1000,unexp,23,0,230,3,2887.343113,,2887.33095,2887.343113,2892.34297,2894.342809,2894.342809,2894.877376,space,0.5273565,None,2894.877912,2894.992944,2895.309776,2895.296566,2895.296623,2895.309776,2895.309776,2895.309776,2899.927597,530,1,[4.628926500008674],[4.628935100001399],756777,1,2024-11-14_22h39.01.129,Task6_IntentionalBinding,2024.1.5,None,2024-11-14 22h39.09.722308 +0530
0.7,1000,unexp,23,1,231,2,2899.942625,,2899.928322,2899.942625,2904.942308,2906.942438,2906.942438,2907.393894,space,0.4458934,None,2907.394554,2908.108862,2908.417037,2908.406244,2908.40629,2908.417037,2908.417037,2908.417037,2911.376494,460,1,[2.9683709999953862],[2.968379300000379],756777,1,2024-11-14_22h39.01.129,Task6_IntentionalBinding,2024.1.5,None,2024-11-14 22h39.09.722308 +0530
0.4,1000,unexp,23,2,232,1,2911.392118,,2911.377226,2911.392118,2916.391662,2918.391769,2918.391769,2919.393647,space,0.9936525,None,2919.394339,2919.808424,2920.117034,2920.106357,2920.106403,2920.117034,2920.117034,2920.117034,2923.142198,720,1,[3.0339488000026904],[3.0339569999923697],756777,1,2024-11-14_22h39.01.129,Task6_IntentionalBinding,2024.1.5,None,2024-11-14 22h39.09.722308 +0530
0.1,400,exp,23,3,233,9,2923.158653,,2923.143008,2923.158653,2928.157846,2930.157808,2930.157808,2930.976101,space,0.8101167,None,2930.976808,2931.091038,2931.396762,2931.386482,2931.386532,2931.396762,2931.396762,2931.396762,2933.47595,880,1,[2.087528600008227],[2.087538699997822],756777,1,2024-11-14_22h39.01.129,Task6_IntentionalBinding,2024.1.5,None,2024-11-14 22h39.09.722308 +0530
0.1,400,exp,23,4,234,6,2933.491009,,2933.476791,2933.491009,2938.490649,2940.506999,2940.506999,2941.725768,space,1.2056067,None,2941.726562,2941.840706,2942.157216,2942.136319,2942.13636,2942.157216,2942.157216,2942.157216,2944.029102,870,1,[1.890314300006139],[1.8903271000017412],756777,1,2024-11-14_22h39.01.129,Task6_IntentionalBinding,2024.1.5,None,2024-11-14 22h39.09.722308 +0530
0.7,400,exp,23,5,235,5,2944.040718,,2944.030347,2944.040718,2949.040232,2951.040339,2951.040339,2951.875651,space,0.8260483,None,2951.876547,2952.590092,2952.906357,2952.886372,2952.886417,2952.906357,2952.906357,2952.906357,2958.643123,250,1,[5.7544464000093285],[5.754458600000362],756777,1,2024-11-14_22h39.01.129,Task6_IntentionalBinding,2024.1.5,None,2024-11-14 22h39.09.722308 +0530
0.1,1000,unexp,23,6,236,0,2958.656717,,2958.644409,2958.656717,2963.656185,2965.656434,2965.656434,2970.057759,space,4.3952686,None,2970.058631,2970.172968,2970.499845,2970.476596,2970.476638,2970.499845,2970.499845,2970.499845,2975.557132,200,1,[5.078319799999008],[5.078328500007046],756777,1,2024-11-14_22h39.01.129,Task6_IntentionalBinding,2024.1.5,None,2024-11-14 22h39.09.722308 +0530
0.4,400,exp,23,7,237,7,2975.572395,,2975.558254,2975.572395,2980.571911,2982.571967,2982.571967,2982.873852,space,0.2848365,None,2982.874702,2983.288753,2983.612412,2983.586885,2983.586952,2983.612412,2983.612412,2983.612412,2987.840448,200,1,[4.2508794000023045],[4.250890700001037],756777,1,2024-11-14_22h39.01.129,Task6_IntentionalBinding,2024.1.5,None,2024-11-14 22h39.09.722308 +0530
0.4,1000,unexp,23,8,238,4,2987.854887,,2987.841879,2987.854887,2992.854835,2994.854803,2994.854803,2995.456727,space,0.591298,None,2995.457655,2995.871215,2996.189438,2996.166174,2996.166218,2996.189438,2996.189438,2996.189438,2999.556645,200,1,[3.3882070999970892],[3.3882220999948913],756777,1,2024-11-14_22h39.01.129,Task6_IntentionalBinding,2024.1.5,None,2024-11-14 22h39.09.722308 +0530
0.7,400,exp,23,9,239,8,2999.571167,,2999.557718,2999.571167,3004.570878,3006.570802,3006.570802,3008.072625,space,1.4924382,None,3008.073541,3008.787442,3009.10994,3009.086849,3009.086897,3009.10994,3009.10994,3009.10994,3011.839558,200,1,[2.7501395999861415],[2.750155999994604],756777,1,2024-11-14_22h39.01.129,Task6_IntentionalBinding,2024.1.5,None,2024-11-14 22h39.09.722308 +0530
0.7,400,exp,24,0,240,5,3011.853763,,3011.840844,3011.853763,3016.853596,3018.853652,3018.853652,3019.322173,space,0.4534649,None,3019.323054,3020.036922,3020.358684,3020.336508,3020.336571,3020.358684,3020.358684,3020.358684,3024.87122,250,1,[4.532370400003856],[4.53238109999802],756777,1,2024-11-14_22h39.01.129,Task6_IntentionalBinding,2024.1.5,None,2024-11-14 22h39.09.722308 +0530
,,,,,,,3024.887075,,3024.87234,3024.887075,,,,,,,,,,,,,,,,,,,,,,,,,,,
