study_words,test,References,old_new,trials.thisRepN,trials.thisTrialN,trials.thisN,trials.thisIndex,trials_2.thisRepN,trials_2.thisTrialN,trials_2.thisN,trials_2.thisIndex,thisRow.t,notes,trial.started,text.started,slider.started,trial.stopped,slider.response,slider.rt,testing.started,text_2.started,textbox.started,text_3.started,mouse.started,testing.stopped,textbox.text,mouse.x,mouse.y,mouse.leftButton,mouse.midButton,mouse.rightButton,mouse.time,mouse.clicked_name,participant,session,date,expName,psychopyVersion,frameRate,expStart,
book,,,,0,0,0,0,,,,,0.056157200000598095,,0.009755399994901381,0.056157200000598095,0.056157200000598095,1.4196644999901764,1.8185185185185184,1.3840439000050537,,,,,,,,,,,,,,,961448,001,2024-11-06_23h39.08.937,Task5_WordPriming,2024.1.5,None,2024-11-06 23h39.24.588681 +0530,
phone,,,,0,1,1,2,,,,,1.449468999999226,,1.4222079999890411,1.449468999999226,1.449468999999226,2.106930399997509,1.7148148148148148,0.6514855999994325,,,,,,,,,,,,,,,961448,001,2024-11-06_23h39.08.937,Task5_WordPriming,2024.1.5,None,2024-11-06 23h39.24.588681 +0530,
mouse,,,,0,2,2,8,,,,,2.137465299994801,,2.107447599992156,2.137465299994801,2.137465299994801,2.79577659998904,1.6,0.6601588999910746,,,,,,,,,,,,,,,961448,001,2024-11-06_23h39.08.937,Task5_WordPriming,2024.1.5,None,2024-11-06 23h39.24.588681 +0530,
police,,,,0,3,3,12,,,,,2.8279773999965983,,2.7963479999889387,2.8279773999965983,2.8279773999965983,3.4251436999911675,1.5666666666666667,0.6007799000071827,,,,,,,,,,,,,,,961448,001,2024-11-06_23h39.08.937,Task5_WordPriming,2024.1.5,None,2024-11-06 23h39.24.588681 +0530,
poster,,,,0,4,4,14,,,,,3.4461967999959597,,3.425440399994841,3.4461967999959597,3.4461967999959597,3.904260199997225,1.5666666666666667,0.4518642000039108,,,,,,,,,,,,,,,961448,001,2024-11-06_23h39.08.937,Task5_WordPriming,2024.1.5,None,2024-11-06 23h39.24.588681 +0530,
board,,,,0,5,5,4,,,,,3.932793399988441,,3.904647199989995,3.932793399988441,3.932793399988441,4.41150529999868,1.5666666666666667,0.47750940000696573,,,,,,,,,,,,,,,961448,001,2024-11-06_23h39.08.937,Task5_WordPriming,2024.1.5,None,2024-11-06 23h39.24.588681 +0530,
cushion,,,,0,6,6,1,,,,,4.429664299997967,,4.411827499992796,4.429664299997967,4.429664299997967,4.936919100000523,1.5703703703703704,0.5016544999962207,,,,,,,,,,,,,,,961448,001,2024-11-06_23h39.08.937,Task5_WordPriming,2024.1.5,None,2024-11-06 23h39.24.588681 +0530,
marble,,,,0,7,7,3,,,,,4.954591399990022,,4.937198699990404,4.954591399990022,4.954591399990022,5.358575499994913,1.5703703703703704,0.3954866999993101,,,,,,,,,,,,,,,961448,001,2024-11-06_23h39.08.937,Task5_WordPriming,2024.1.5,None,2024-11-06 23h39.24.588681 +0530,
case,,,,0,8,8,10,,,,,5.379321299988078,,5.359059999987949,5.379321299988078,5.379321299988078,6.011145500000566,1.7740740740740741,0.6292222999909427,,,,,,,,,,,,,,,961448,001,2024-11-06_23h39.08.937,Task5_WordPriming,2024.1.5,None,2024-11-06 23h39.24.588681 +0530,
pastry,,,,0,9,9,9,,,,,6.042660899998737,,6.011692799991579,6.042660899998737,6.042660899998737,6.481347499997355,1.7925925925925925,0.4417128000059165,,,,,,,,,,,,,,,961448,001,2024-11-06_23h39.08.937,Task5_WordPriming,2024.1.5,None,2024-11-06 23h39.24.588681 +0530,
t-shirt,,,,0,10,10,7,,,,,6.5012980999890715,,6.481631199989351,6.5012980999890715,6.5012980999890715,6.888214499995229,1.762962962962963,0.3808705999981612,,,,,,,,,,,,,,,961448,001,2024-11-06_23h39.08.937,Task5_WordPriming,2024.1.5,None,2024-11-06 23h39.24.588681 +0530,
keys,,,,0,11,11,13,,,,,6.918929499996011,,6.8886490000004414,6.918929499996011,6.918929499996011,7.320083400001749,1.6814814814814816,0.4029454999981681,,,,,,,,,,,,,,,961448,001,2024-11-06_23h39.08.937,Task5_WordPriming,2024.1.5,None,2024-11-06 23h39.24.588681 +0530,
cruise,,,,0,12,12,11,,,,,7.337934299997869,,7.320394999987911,7.337934299997869,7.337934299997869,7.6740069999941625,1.6592592592592592,0.33168440000736155,,,,,,,,,,,,,,,961448,001,2024-11-06_23h39.08.937,Task5_WordPriming,2024.1.5,None,2024-11-06 23h39.24.588681 +0530,
laptop,,,,0,13,13,5,,,,,7.6927165999950375,,7.674332599999616,7.6927165999950375,7.6927165999950375,7.98340329999337,1.6592592592592592,0.2870696999889333,,,,,,,,,,,,,,,961448,001,2024-11-06_23h39.08.937,Task5_WordPriming,2024.1.5,None,2024-11-06 23h39.24.588681 +0530,
chart,,,,0,14,14,6,,,,,8.017029199996614,,7.9840473999938695,8.017029199996614,8.017029199996614,8.369891299997107,1.6592592592592592,0.3595421000063652,,,,,,,,,,,,,,,961448,001,2024-11-06_23h39.08.937,Task5_WordPriming,2024.1.5,None,2024-11-06 23h39.24.588681 +0530,
,bo_t_e,bottle,new,,,,,0,0,0,18,8.396239099995,,,,,,,,8.374101399997016,8.396239099995,8.396239099995,8.396239099995,0.008313600003020838,14.153961499992874,bottle,"[-0.3351851851851852, 0.027777777777777776]","[-0.30462962962962964, -0.31296296296296294]","[1, 1]","[0, 0]","[0, 0]","[0.2722350000112783, 5.774573800008511]",['text_3'],961448,001,2024-11-06_23h39.08.937,Task5_WordPriming,2024.1.5,None,2024-11-06 23h39.24.588681 +0530,
,_r_is_,cruise,old,,,,,0,1,1,6,14.18098029999237,,,,,,,,14.156463999999687,14.18098029999237,14.18098029999237,14.18098029999237,0.00552570000581909,20.168030199987697,cruise,[0.025925925925925925],[-0.31296296296296294],[1],[0],[0],[6.004998900010833],['text_3'],961448,001,2024-11-06_23h39.08.937,Task5_WordPriming,2024.1.5,None,2024-11-06 23h39.24.588681 +0530,
,_a_bl_,marble,old,,,,,0,2,2,11,20.190477299998747,,,,,,,,20.169461299999966,20.190477299998747,20.190477299998747,20.190477299998747,0.007981700007803738,25.788435900001787,table,[0.010185185185185186],[-0.30648148148148147],[1],[0],[0],[5.610301900000195],['text_3'],961448,001,2024-11-06_23h39.08.937,Task5_WordPriming,2024.1.5,None,2024-11-06 23h39.24.588681 +0530,
,t_hi_t,tshirt,old,,,,,0,3,3,2,25.81729589999304,,,,,,,,25.790063399996143,25.81729589999304,25.81729589999304,25.81729589999304,0.008817900001304224,30.416879399999743,tshirt,[0.006481481481481481],[-0.30462962962962964],[1],[0],[0],[4.617258500002208],['text_3'],961448,001,2024-11-06_23h39.08.937,Task5_WordPriming,2024.1.5,None,2024-11-06 23h39.24.588681 +0530,
,ta_l_,table,new,,,,,0,4,4,15,30.441517399987788,,,,,,,,30.418568900000537,30.441517399987788,30.441517399987788,30.441517399987788,0.005653300002450123,33.599692199990386,table,[0.026851851851851852],[-0.3],[1],[0],[0],[3.174854500000947],['text_3'],961448,001,2024-11-06_23h39.08.937,Task5_WordPriming,2024.1.5,None,2024-11-06 23h39.24.588681 +0530,
,p_nc_l,pencil,new,,,,,0,5,5,16,33.61967459999141,,,,,,,,33.60092440000153,33.61967459999141,33.61967459999141,33.61967459999141,0.005205100009334274,37.316304399995715,pencil,[0.012962962962962963],[-0.3],[1],[0],[0],[3.7094594000081997],['text_3'],961448,001,2024-11-06_23h39.08.937,Task5_WordPriming,2024.1.5,None,2024-11-06 23h39.24.588681 +0530,
,_oo_,book,old,,,,,0,6,6,13,37.339636699995026,,,,,,,,37.31793619999371,37.339636699995026,37.339636699995026,37.339636699995026,0.0058250000001862645,41.40060699998867,pool,[0.013888888888888888],[-0.3111111111111111],[1],[0],[0],[4.0758557000081055],['text_3'],961448,001,2024-11-06_23h39.08.937,Task5_WordPriming,2024.1.5,None,2024-11-06 23h39.24.588681 +0530,
,v_s_,vase,new,,,,,0,7,7,17,41.43226750000031,,,,,,,,41.40208239998901,41.43226750000031,41.43226750000031,41.43226750000031,0.010896699997829273,51.4141593999957,vise,[],[],[],[],[],[],[],961448,001,2024-11-06_23h39.08.937,Task5_WordPriming,2024.1.5,None,2024-11-06 23h39.24.588681 +0530,
,k_y_,keys,old,,,,,0,8,8,8,51.433823100000154,,,,,,,,51.415506899997126,51.433823100000154,51.433823100000154,51.433823100000154,0.01796209999884013,57.21524130000034,keys,"[-0.012962962962962963, 0.002777777777777778]","[-0.23703703703703705, -0.31574074074074077]","[1, 1]","[0, 0]","[0, 0]","[4.261826700007077, 5.794504900011816]",['text_3'],961448,001,2024-11-06_23h39.08.937,Task5_WordPriming,2024.1.5,None,2024-11-06 23h39.24.588681 +0530,
,l_pt_p,laptop,old,,,,,0,9,9,0,57.23299939998833,,,,,,,,57.21652209998865,57.23299939998833,57.23299939998833,57.23299939998833,0.004525699987425469,61.135238299990306,laptop,[-0.007407407407407408],[-0.3037037037037037],[1],[0],[0],[3.913222599992878],['text_3'],961448,001,2024-11-06_23h39.08.937,Task5_WordPriming,2024.1.5,None,2024-11-06 23h39.24.588681 +0530,
,c_s_io_,cushion,old,,,,,0,10,10,14,61.15605799999321,,,,,,,,61.13704349999898,61.15605799999321,61.15605799999321,61.15605799999321,0.00443960000120569,65.69865909998771,cushion,[-0.007407407407407408],[-0.3037037037037037],[1],[0],[0],[4.556374599997071],['text_3'],961448,001,2024-11-06_23h39.08.937,Task5_WordPriming,2024.1.5,None,2024-11-06 23h39.24.588681 +0530,
,_ho_e,phone,old,,,,,0,11,11,12,65.72421929999837,,,,,,,,65.70005869999295,65.72421929999837,65.72421929999837,65.72421929999837,0.006171000000904314,69.94857619999675,phone,[-0.007407407407407408],[-0.3037037037037037],[1],[0],[0],[4.24157749999722],['text_3'],961448,001,2024-11-06_23h39.08.937,Task5_WordPriming,2024.1.5,None,2024-11-06 23h39.24.588681 +0530,
,c_s_,case,old,,,,,0,12,12,5,69.96783359999245,,,,,,,,69.95010750000074,69.96783359999245,69.96783359999245,69.96783359999245,0.005110900005092844,73.48122370000056,case,[-0.003703703703703704],[-0.3074074074074074],[1],[0],[0],[3.5253942999988794],['text_3'],961448,001,2024-11-06_23h39.08.937,Task5_WordPriming,2024.1.5,None,2024-11-06 23h39.24.588681 +0530,
,_ha_t,chart,old,,,,,0,13,13,1,73.49995379999746,,,,,,,,73.48261799999455,73.49995379999746,73.49995379999746,73.49995379999746,0.005443699992611073,77.43143719999352,chart,[-0.005555555555555556],[-0.3074074074074074],[1],[0],[0],[3.942598399997223],['text_3'],961448,001,2024-11-06_23h39.08.937,Task5_WordPriming,2024.1.5,None,2024-11-06 23h39.24.588681 +0530,
,p_st_r,poster,old,,,,,0,14,14,9,77.45789549998881,,,,,,,,77.43285230000038,77.45789549998881,77.45789549998881,77.45789549998881,0.006939700004295446,81.5483080999984,poster,[-0.01574074074074074],[-0.30462962962962964],[1],[0],[0],[4.107806799991522],['text_3'],961448,001,2024-11-06_23h39.08.937,Task5_WordPriming,2024.1.5,None,2024-11-06 23h39.24.588681 +0530,
,p_li_e,police,old,,,,,0,15,15,7,81.56717460000073,,,,,,,,81.54984899998817,81.56717460000073,81.56717460000073,81.56717460000073,0.004865099996095523,84.6475317000004,police,[-0.014814814814814815],[-0.30462962962962964],[1],[0],[0],[3.092127199997776],['text_3'],961448,001,2024-11-06_23h39.08.937,Task5_WordPriming,2024.1.5,None,2024-11-06 23h39.24.588681 +0530,
,_o_rd,board,old,,,,,0,16,16,10,84.66380049999862,,,,,,,,84.64868689999275,84.66380049999862,84.66380049999862,84.66380049999862,0.003999299995484762,94.66206049999164,board,[],[],[],[],[],[],[],961448,001,2024-11-06_23h39.08.937,Task5_WordPriming,2024.1.5,None,2024-11-06 23h39.24.588681 +0530,
,p_s_r_,pastry,old,,,,,0,17,17,4,94.68546379999316,,,,,,,,94.66333409999788,94.68546379999316,94.68546379999316,94.68546379999316,0.02115580000099726,104.66175859999203,pastry,[],[],[],[],[],[],[],961448,001,2024-11-06_23h39.08.937,Task5_WordPriming,2024.1.5,None,2024-11-06 23h39.24.588681 +0530,
,_ou_e,mouse,old,,,,,0,18,18,3,104.68595959999948,,,,,,,,104.6633667999995,104.68595959999948,104.68595959999948,104.68595959999948,0.02045499999076128,104.68886479998764,,[0.011111111111111112],[-0.30092592592592593],[1],[0],[0],[0.01897879999887664],['text_3'],961448,001,2024-11-06_23h39.08.937,Task5_WordPriming,2024.1.5,None,2024-11-06 23h39.24.588681 +0530,
,c_m_ra,camera,new,,,,,0,19,19,19,104.70318069998757,,,,,,,,104.68974269999308,104.70318069998757,104.70318069998757,104.70318069998757,0.003641899995272979,107.67996569999377,camera,[0.012037037037037037],[-0.30185185185185187],[1],[0],[0],[2.9858276000013575],['text_3'],961448,001,2024-11-06_23h39.08.937,Task5_WordPriming,2024.1.5,None,2024-11-06 23h39.24.588681 +0530,
