trials.thisRepN,trials.thisTrialN,trials.thisN,trials.thisIndex,thisRow.t,notes,trial.started,num_distr,fixation.started,target.started,mouse.started,trial.stopped,mouse.x,mouse.y,mouse.leftButton,mouse.midButton,mouse.rightButton,mouse.time,mouse.clicked_name,participant,session,date,expName,psychopyVersion,frameRate,expStart,
0,0,0,0,0.0349912999663502,,0.0058385999873280525,5,0.0349912999663502,0.0349912999663502,0.025868099997751415,2.8599658999592066,[0.0],[0.287962962962963],[1],[0],[0],[2.832839300041087],[],518027,001,2024-10-10_19h49.07.379,Task3_VisualSearch,2024.1.5,None,2024-10-10 19h49.18.265112 +0530,
1,0,1,0,2.9271455999696627,,2.8693218999542296,10,2.9271455999696627,2.9271455999696627,0.04489140002988279,3.5648342999629676,[0.044444444444444446],[0.22037037037037038],[0],[0],[1],[0.6515223999740556],[],518027,001,2024-10-10_19h49.07.379,Task3_VisualSearch,2024.1.5,None,2024-10-10 19h49.18.265112 +0530,
2,0,2,0,3.610870199976489,,3.5723169000120834,5,3.610870199976489,3.610870199976489,0.025505100027658045,5.9559594000456855,[0.13333333333333333],[-0.046296296296296294],[0],[0],[1],[2.3589614999946207],[],518027,001,2024-10-10_19h49.07.379,Task3_VisualSearch,2024.1.5,None,2024-10-10 19h49.18.265112 +0530,
3,0,3,0,5.99040549993515,,5.961993300006725,5,5.99040549993515,5.99040549993515,0.019455299945548177,8.172187099931762,[0.22037037037037038],[0.1287037037037037],[1],[0],[0],[2.1912529000546783],['target'],518027,001,2024-10-10_19h49.07.379,Task3_VisualSearch,2024.1.5,None,2024-10-10 19h49.18.265112 +0530,
4,0,4,0,8.228572999942116,,8.177460400038399,10,8.228572999942116,8.228572999942116,0.03200269991066307,9.405655300011858,[0.3296296296296296],[0.25092592592592594],[1],[0],[0],[1.1965803999919444],['target'],518027,001,2024-10-10_19h49.07.379,Task3_VisualSearch,2024.1.5,None,2024-10-10 19h49.18.265112 +0530,
5,0,5,0,9.488365800003521,,9.41292789997533,10,9.488365800003521,9.488365800003521,0.05845260003115982,12.118217600043863,[-0.12314814814814815],[0.20833333333333334],[1],[0],[0],[2.6476478000404313],['target'],518027,001,2024-10-10_19h49.07.379,Task3_VisualSearch,2024.1.5,None,2024-10-10 19h49.18.265112 +0530,
6,0,6,0,12.160884300014004,,12.126435499987565,5,12.160884300014004,12.160884300014004,0.02553560002706945,18.15960879996419,[0.15925925925925927],[0.3351851851851852],[1],[0],[0],[6.008412499912083],['target'],518027,001,2024-10-10_19h49.07.379,Task3_VisualSearch,2024.1.5,None,2024-10-10 19h49.18.265112 +0530,
7,0,7,0,18.21662009996362,,18.167171400040388,5,18.21662009996362,18.21662009996362,0.03361780010163784,19.65490610001143,[-0.5009259259259259],[0.21388888888888888],[1],[0],[0],[1.45488179998938],[],518027,001,2024-10-10_19h49.07.379,Task3_VisualSearch,2024.1.5,None,2024-10-10 19h49.18.265112 +0530,
8,0,8,0,19.691152599989437,,19.661744500044733,5,19.691152599989437,19.691152599989437,0.019870099960826337,20.854819900006987,[-0.20092592592592592],[0.3824074074074074],[1],[0],[0],[1.173658199957572],['target'],518027,001,2024-10-10_19h49.07.379,Task3_VisualSearch,2024.1.5,None,2024-10-10 19h49.18.265112 +0530,
9,0,9,0,20.924391699954867,,20.862572100013494,10,20.924391699954867,20.924391699954867,0.044330400065518916,25.533103100024164,[0.32592592592592595],[-0.175],[1],[0],[0],[4.62711749994196],['target'],518027,001,2024-10-10_19h49.07.379,Task3_VisualSearch,2024.1.5,None,2024-10-10 19h49.18.265112 +0530,
10,0,10,0,25.58724419993814,,25.53936709999107,10,25.58724419993814,25.58724419993814,0.033139699953608215,26.782151899999008,[0.3074074074074074],[0.012037037037037037],[1],[0],[0],[1.2102505000075325],[],518027,001,2024-10-10_19h49.07.379,Task3_VisualSearch,2024.1.5,None,2024-10-10 19h49.18.265112 +0530,
11,0,11,0,26.822001799941063,,26.789361899951473,5,26.822001799941063,26.822001799941063,0.023616299964487553,27.555344799999148,[0.44907407407407407],[0.15],[1],[0],[0],[0.7429954999824986],[],518027,001,2024-10-10_19h49.07.379,Task3_VisualSearch,2024.1.5,None,2024-10-10 19h49.18.265112 +0530,
12,0,12,0,27.60144959995523,,27.562888200045563,5,27.60144959995523,27.60144959995523,0.027603199938312173,28.658844899968244,[-0.5444444444444444],[0.2490740740740741],[1],[0],[0],[1.069296900066547],[],518027,001,2024-10-10_19h49.07.379,Task3_VisualSearch,2024.1.5,None,2024-10-10 19h49.18.265112 +0530,
13,0,13,0,28.72940389998257,,28.666547399945557,10,28.72940389998257,28.72940389998257,0.04733550001401454,29.380688500008546,[-0.4324074074074074],[0.15555555555555556],[1],[0],[0],[0.6677884999662638],['target'],518027,001,2024-10-10_19h49.07.379,Task3_VisualSearch,2024.1.5,None,2024-10-10 19h49.18.265112 +0530,
14,0,14,0,29.447431699954905,,29.3881706999382,10,29.447431699954905,29.447431699954905,0.04375020007137209,32.95814220001921,[-0.37592592592592594],[-0.23425925925925925],[1],[0],[0],[3.527031400008127],['target'],518027,001,2024-10-10_19h49.07.379,Task3_VisualSearch,2024.1.5,None,2024-10-10 19h49.18.265112 +0530,
15,0,15,0,33.02564839995466,,32.96561670000665,10,33.02564839995466,33.02564839995466,0.0434540999121964,34.36763210000936,[0.4675925925925926],[0.09907407407407408],[1],[0],[0],[1.359215300064534],['target'],518027,001,2024-10-10_19h49.07.379,Task3_VisualSearch,2024.1.5,None,2024-10-10 19h49.18.265112 +0530,
16,0,16,0,34.4075888999505,,34.374833500012755,5,34.4075888999505,34.4075888999505,0.022354200016707182,35.79232789995149,[-0.03796296296296296],[-0.19722222222222222],[1],[0],[0],[1.3958769999444485],['target'],518027,001,2024-10-10_19h49.07.379,Task3_VisualSearch,2024.1.5,None,2024-10-10 19h49.18.265112 +0530,
17,0,17,0,35.86121609993279,,35.80007060000207,10,35.86121609993279,35.86121609993279,0.045856700045987964,37.10376600001473,[-0.15925925925925927],[0.3037037037037037],[1],[0],[0],[1.2590180999832228],['target'],518027,001,2024-10-10_19h49.07.379,Task3_VisualSearch,2024.1.5,None,2024-10-10 19h49.18.265112 +0530,
18,0,18,0,37.156411699950695,,37.108430100022815,5,37.156411699950695,37.156411699950695,0.03187169996090233,37.9709215000039,[0.09074074074074075],[0.2111111111111111],[1],[0],[0],[0.8309731999179348],['target'],518027,001,2024-10-10_19h49.07.379,Task3_VisualSearch,2024.1.5,None,2024-10-10 19h49.18.265112 +0530,
19,0,19,0,38.00568689999636,,37.97721489996184,5,38.00568689999636,38.00568689999636,0.019162200042046607,38.70709469995927,[-0.08981481481481482],[0.13518518518518519],[1],[0],[0],[0.7111847999040037],['target'],518027,001,2024-10-10_19h49.07.379,Task3_VisualSearch,2024.1.5,None,2024-10-10 19h49.18.265112 +0530,
20,0,20,0,38.76562409999315,,38.71442229999229,10,38.76562409999315,38.76562409999315,0.035310299950651824,39.61900860001333,[0.22777777777777777],[0.22870370370370371],[1],[0],[0],[0.8700072000501677],['target'],518027,001,2024-10-10_19h49.07.379,Task3_VisualSearch,2024.1.5,None,2024-10-10 19h49.18.265112 +0530,
21,0,21,0,39.68605469993781,,39.62617309996858,10,39.68605469993781,39.68605469993781,0.0447342999977991,40.438316000043415,[0.3],[0.2712962962962963],[1],[0],[0],[0.7681740000844002],['target'],518027,001,2024-10-10_19h49.07.379,Task3_VisualSearch,2024.1.5,None,2024-10-10 19h49.18.265112 +0530,
22,0,22,0,40.5094505000161,,40.445915299933404,10,40.5094505000161,40.5094505000161,0.048179800040088594,41.46197269996628,[0.11944444444444445],[0.2490740740740741],[1],[0],[0],[0.9691552999429405],[],518027,001,2024-10-10_19h49.07.379,Task3_VisualSearch,2024.1.5,None,2024-10-10 19h49.18.265112 +0530,
23,0,23,0,41.49755480000749,,41.46653159998823,5,41.49755480000749,41.49755480000749,0.021891099982894957,42.6371181999566,[-0.4962962962962963],[-0.42777777777777776],[1],[0],[0],[1.1494664000347257],[],518027,001,2024-10-10_19h49.07.379,Task3_VisualSearch,2024.1.5,None,2024-10-10 19h49.18.265112 +0530,
24,0,24,0,42.67065600003116,,42.64286310004536,5,42.67065600003116,42.67065600003116,0.01885800005402416,44.27039750001859,[0.5444444444444444],[-0.0962962962962963],[1],[0],[0],[1.6091081999475136],[],518027,001,2024-10-10_19h49.07.379,Task3_VisualSearch,2024.1.5,None,2024-10-10 19h49.18.265112 +0530,
25,0,25,0,44.32902569998987,,44.27783639996778,5,44.32902569998987,44.32902569998987,0.03473930002655834,45.05441390001215,[0.4824074074074074],[-0.12407407407407407],[1],[0],[0],[0.7426019000122324],['target'],518027,001,2024-10-10_19h49.07.379,Task3_VisualSearch,2024.1.5,None,2024-10-10 19h49.18.265112 +0530,
26,0,26,0,45.09285539994016,,45.06187289999798,5,45.09285539994016,45.09285539994016,0.02171849994920194,46.387054799939506,[-0.12314814814814815],[-0.03796296296296296],[1],[0],[0],[1.3042867999756709],['target'],518027,001,2024-10-10_19h49.07.379,Task3_VisualSearch,2024.1.5,None,2024-10-10 19h49.18.265112 +0530,
27,0,27,0,46.430254700011574,,46.394524200004525,5,46.430254700011574,46.430254700011574,0.026663399999961257,48.403581099933945,[-0.42314814814814816],[0.4148148148148148],[1],[0],[0],[1.9832322999136522],['target'],518027,001,2024-10-10_19h49.07.379,Task3_VisualSearch,2024.1.5,None,2024-10-10 19h49.18.265112 +0530,
28,0,28,0,48.44361309998203,,48.411069500027224,5,48.44361309998203,48.44361309998203,0.023053999990224838,50.48638659995049,[0.1175925925925926],[-0.38981481481481484],[1],[0],[0],[2.053141999989748],['target'],518027,001,2024-10-10_19h49.07.379,Task3_VisualSearch,2024.1.5,None,2024-10-10 19h49.18.265112 +0530,
29,0,29,0,50.53432229999453,,50.492024400038645,5,50.53432229999453,50.53432229999453,0.02484490000642836,52.53613260004204,[0.3074074074074074],[-0.42314814814814816],[1],[0],[0],[2.0199412000365555],['target'],518027,001,2024-10-10_19h49.07.379,Task3_VisualSearch,2024.1.5,None,2024-10-10 19h49.18.265112 +0530,
30,0,30,0,52.58690510003362,,52.541325099999085,10,52.58690510003362,52.58690510003362,0.03151730005629361,53.63890719995834,[-0.08425925925925926],[-0.32407407407407407],[1],[0],[0],[1.0665776999667287],['target'],518027,001,2024-10-10_19h49.07.379,Task3_VisualSearch,2024.1.5,None,2024-10-10 19h49.18.265112 +0530,
31,0,31,0,53.691117299953476,,53.644365199957974,10,53.691117299953476,53.691117299953476,0.03108690003864467,55.038787099998444,[-0.23425925925925925],[-0.19444444444444445],[1],[0],[0],[1.364111499977298],['target'],518027,001,2024-10-10_19h49.07.379,Task3_VisualSearch,2024.1.5,None,2024-10-10 19h49.18.265112 +0530,
32,0,32,0,55.06676179997157,,55.042034000041895,5,55.06676179997157,55.06676179997157,0.014909299905411899,56.25368319998961,[-0.3638888888888889],[0.3074074074074074],[1],[0],[0],[1.1965953999897465],['target'],518027,001,2024-10-10_19h49.07.379,Task3_VisualSearch,2024.1.5,None,2024-10-10 19h49.18.265112 +0530,
33,0,33,0,56.34908069996163,,56.26112819998525,10,56.34908069996163,56.34908069996163,0.05965970002580434,57.687783999950625,[0.075],[0.075],[1],[0],[0],[1.3678770000115037],['target'],518027,001,2024-10-10_19h49.07.379,Task3_VisualSearch,2024.1.5,None,2024-10-10 19h49.18.265112 +0530,
34,0,34,0,57.77864709997084,,57.69480219995603,10,57.77864709997084,57.77864709997084,0.05768309999257326,59.266988900024444,[-0.1111111111111111],[-0.44537037037037036],[1],[0],[0],[1.5151524000102654],['target'],518027,001,2024-10-10_19h49.07.379,Task3_VisualSearch,2024.1.5,None,2024-10-10 19h49.18.265112 +0530,
35,0,35,0,59.304886500001885,,59.27412730001379,5,59.304886500001885,59.304886500001885,0.020716500002890825,60.48658060003072,[0.31574074074074077],[-0.2935185185185185],[1],[0],[0],[1.192110399948433],[],518027,001,2024-10-10_19h49.07.379,Task3_VisualSearch,2024.1.5,None,2024-10-10 19h49.18.265112 +0530,
36,0,36,0,60.534271199954674,,60.494254900026135,5,60.534271199954674,60.534271199954674,0.030550400028005242,61.98752740002237,[0.18981481481481483],[0.2861111111111111],[1],[0],[0],[1.4638572999974713],['target'],518027,001,2024-10-10_19h49.07.379,Task3_VisualSearch,2024.1.5,None,2024-10-10 19h49.18.265112 +0530,
37,0,37,0,62.040431699948385,,61.99493639997672,5,62.040431699948385,62.040431699948385,0.03439859999343753,63.11999719997402,[0.36203703703703705],[-0.2388888888888889],[1],[0],[0],[1.0916254000039771],['target'],518027,001,2024-10-10_19h49.07.379,Task3_VisualSearch,2024.1.5,None,2024-10-10 19h49.18.265112 +0530,
38,0,38,0,63.1806346999947,,63.127501599956304,10,63.1806346999947,63.1806346999947,0.03880620002746582,64.35791409993544,[0.049074074074074076],[0.04351851851851852],[1],[0],[0],[1.192657900042832],['target'],518027,001,2024-10-10_19h49.07.379,Task3_VisualSearch,2024.1.5,None,2024-10-10 19h49.18.265112 +0530,
39,0,39,0,64.40906610002276,,64.3652349000331,5,64.40906610002276,64.40906610002276,0.03343880001921207,65.4699346999405,[0.17592592592592593],[-0.37592592592592594],[1],[0],[0],[1.0721422000788152],['target'],518027,001,2024-10-10_19h49.07.379,Task3_VisualSearch,2024.1.5,None,2024-10-10 19h49.18.265112 +0530,
40,0,40,0,65.54331760003697,,65.47674650000408,10,65.54331760003697,65.54331760003697,0.050256800022907555,67.32308390003163,[-0.3277777777777778],[-0.46111111111111114],[1],[0],[0],[1.7969975000014529],['target'],518027,001,2024-10-10_19h49.07.379,Task3_VisualSearch,2024.1.5,None,2024-10-10 19h49.18.265112 +0530,
41,0,41,0,67.37111179996282,,67.326485699974,10,67.37111179996282,67.37111179996282,0.028831700095906854,68.47701309993863,[-0.25462962962962965],[0.08796296296296297],[1],[0],[0],[1.1216204999946058],['target'],518027,001,2024-10-10_19h49.07.379,Task3_VisualSearch,2024.1.5,None,2024-10-10 19h49.18.265112 +0530,
42,0,42,0,68.51896220003255,,68.48445590003394,5,68.51896220003255,68.51896220003255,0.025219500064849854,69.30577500001527,[-0.07314814814814814],[-0.06018518518518518],[1],[0],[0],[0.7969917999580503],['target'],518027,001,2024-10-10_19h49.07.379,Task3_VisualSearch,2024.1.5,None,2024-10-10 19h49.18.265112 +0530,
43,0,43,0,69.37549040000886,,69.31285480002407,10,69.37549040000886,69.37549040000886,0.04915510001592338,70.41458979994059,[-0.48055555555555557],[0.16203703703703703],[1],[0],[0],[1.0533083999762312],['target'],518027,001,2024-10-10_19h49.07.379,Task3_VisualSearch,2024.1.5,None,2024-10-10 19h49.18.265112 +0530,
44,0,44,0,70.46447559993248,,70.42080239998177,10,70.46447559993248,70.46447559993248,0.029164399951696396,72.14292559993919,[0.21944444444444444],[-0.2972222222222222],[1],[0],[0],[1.693752899998799],['target'],518027,001,2024-10-10_19h49.07.379,Task3_VisualSearch,2024.1.5,None,2024-10-10 19h49.18.265112 +0530,
45,0,45,0,72.20722720003687,,72.14785129996017,10,72.20722720003687,72.20722720003687,0.044057499966584146,73.29334870004095,[-0.08518518518518518],[0.362962962962963],[1],[0],[0],[1.10165440000128],['target'],518027,001,2024-10-10_19h49.07.379,Task3_VisualSearch,2024.1.5,None,2024-10-10 19h49.18.265112 +0530,
46,0,46,0,73.3348903999431,,73.30102180002723,5,73.3348903999431,73.3348903999431,0.02333359990734607,74.47186599997804,[-0.13333333333333333],[0.03148148148148148],[1],[0],[0],[1.1482501000864431],['target'],518027,001,2024-10-10_19h49.07.379,Task3_VisualSearch,2024.1.5,None,2024-10-10 19h49.18.265112 +0530,
47,0,47,0,74.51180610002484,,74.47941749996971,5,74.51180610002484,74.51180610002484,0.023244100040756166,75.31908629997633,[-0.30462962962962964],[0.10833333333333334],[1],[0],[0],[0.8171691000461578],['target'],518027,001,2024-10-10_19h49.07.379,Task3_VisualSearch,2024.1.5,None,2024-10-10 19h49.18.265112 +0530,
48,0,48,0,75.36132979998365,,75.326292200014,5,75.36132979998365,75.36132979998365,0.025604200083762407,76.30985600000713,[-0.01574074074074074],[0.21296296296296297],[1],[0],[0],[0.958735299995169],[],518027,001,2024-10-10_19h49.07.379,Task3_VisualSearch,2024.1.5,None,2024-10-10 19h49.18.265112 +0530,
49,0,49,0,76.40121090004686,,76.31746940000448,10,76.40121090004686,76.40121090004686,0.05783399997744709,77.26087470003404,[0.13518518518518519],[0.22407407407407406],[1],[0],[0],[0.8865346000529826],[],518027,001,2024-10-10_19h49.07.379,Task3_VisualSearch,2024.1.5,None,2024-10-10 19h49.18.265112 +0530,
50,0,50,0,77.3483406000305,,77.268426500028,10,77.3483406000305,77.3483406000305,0.052354399929754436,78.26869109994732,[0.4],[0.024074074074074074],[1],[0],[0],[0.9488769000163302],['target'],518027,001,2024-10-10_19h49.07.379,Task3_VisualSearch,2024.1.5,None,2024-10-10 19h49.18.265112 +0530,
51,0,51,0,78.30009919998702,,78.2733943000203,5,78.30009919998702,78.30009919998702,0.016317300032824278,79.65589279995766,[-0.01574074074074074],[-0.2740740740740741],[1],[0],[0],[1.3663153999950737],['target'],518027,001,2024-10-10_19h49.07.379,Task3_VisualSearch,2024.1.5,None,2024-10-10 19h49.18.265112 +0530,
52,0,52,0,79.73416879994329,,79.66356619994622,10,79.73416879994329,79.73416879994329,0.05502810003235936,81.05886710004415,[-0.48055555555555557],[0.032407407407407406],[1],[0],[0],[1.34120859997347],['target'],518027,001,2024-10-10_19h49.07.379,Task3_VisualSearch,2024.1.5,None,2024-10-10 19h49.18.265112 +0530,
53,0,53,0,81.13107470003888,,81.06640999997035,10,81.13107470003888,81.13107470003888,0.04930750001221895,82.41594979993533,[-0.32592592592592595],[-0.0712962962962963],[1],[0],[0],[1.301084200036712],['target'],518027,001,2024-10-10_19h49.07.379,Task3_VisualSearch,2024.1.5,None,2024-10-10 19h49.18.265112 +0530,
54,0,54,0,82.45362980000209,,82.4234332999913,5,82.45362980000209,82.45362980000209,0.02097529999446124,83.60180579998996,[0.025],[0.3074074074074074],[1],[0],[0],[1.1581363999284804],[],518027,001,2024-10-10_19h49.07.379,Task3_VisualSearch,2024.1.5,None,2024-10-10 19h49.18.265112 +0530,
55,0,55,0,83.63999639998656,,83.60901220003143,5,83.63999639998656,83.63999639998656,0.02211310004349798,84.30295879999176,[0.09444444444444444],[0.30648148148148147],[1],[0],[0],[0.6728308999445289],['target'],518027,001,2024-10-10_19h49.07.379,Task3_VisualSearch,2024.1.5,None,2024-10-10 19h49.18.265112 +0530,
56,0,56,0,84.37202529993374,,84.31039849994704,10,84.37202529993374,84.37202529993374,0.04769899998791516,86.12742569996044,[-0.23981481481481481],[-0.29444444444444445],[1],[0],[0],[1.770559799973853],['target'],518027,001,2024-10-10_19h49.07.379,Task3_VisualSearch,2024.1.5,None,2024-10-10 19h49.18.265112 +0530,
57,0,57,0,86.1633950000396,,86.1344192000106,5,86.1633950000396,86.1633950000396,0.01964469999074936,88.15104180003982,[-0.44907407407407407],[-0.39351851851851855],[1],[0],[0],[1.9977847000118345],[],518027,001,2024-10-10_19h49.07.379,Task3_VisualSearch,2024.1.5,None,2024-10-10 19h49.18.265112 +0530,
58,0,58,0,88.20590469997842,,88.15798999997787,10,88.20590469997842,88.20590469997842,0.032238999963738024,89.9911085999338,[-0.2638888888888889],[-0.06111111111111111],[1],[0],[0],[1.8016390000702813],['target'],518027,001,2024-10-10_19h49.07.379,Task3_VisualSearch,2024.1.5,None,2024-10-10 19h49.18.265112 +0530,
59,0,59,0,90.01855969999451,,89.99416400003247,5,90.01855969999451,90.01855969999451,0.014157700003124774,91.11820489994716,[0.022222222222222223],[-0.16666666666666666],[1],[0],[0],[1.1098413000581786],[],518027,001,2024-10-10_19h49.07.379,Task3_VisualSearch,2024.1.5,None,2024-10-10 19h49.18.265112 +0530,
60,0,60,0,91.1632140999427,,91.12541400000919,5,91.1632140999427,91.1632140999427,0.02384639997035265,92.59049770003185,[-0.16111111111111112],[-0.4787037037037037],[1],[0],[0],[1.4424703000113368],['target'],518027,001,2024-10-10_19h49.07.379,Task3_VisualSearch,2024.1.5,None,2024-10-10 19h49.18.265112 +0530,
61,0,61,0,92.63524380000308,,92.5940239999909,5,92.63524380000308,92.63524380000308,0.030366500024683774,93.72146160004195,[0.11388888888888889],[-0.35833333333333334],[1],[0],[0],[1.097236800007522],['target'],518027,001,2024-10-10_19h49.07.379,Task3_VisualSearch,2024.1.5,None,2024-10-10 19h49.18.265112 +0530,
62,0,62,0,93.77020170004107,,93.72898599994369,5,93.77020170004107,93.77020170004107,0.03124580008443445,95.38547979993746,[-0.23796296296296296],[-0.23055555555555557],[1],[0],[0],[1.6261418999638408],['target'],518027,001,2024-10-10_19h49.07.379,Task3_VisualSearch,2024.1.5,None,2024-10-10 19h49.18.265112 +0530,
63,0,63,0,95.4573129999917,,95.39328399999067,10,95.4573129999917,95.4573129999917,0.04793570004403591,96.43428459996358,[-0.1648148148148148],[-0.003703703703703704],[1],[0],[0],[0.9936049000825733],['target'],518027,001,2024-10-10_19h49.07.379,Task3_VisualSearch,2024.1.5,None,2024-10-10 19h49.18.265112 +0530,
64,0,64,0,96.50634139997419,,96.44184240000322,10,96.50634139997419,96.50634139997419,0.049648100044578314,98.06289529998321,[0.42592592592592593],[0.16203703703703703],[1],[0],[0],[1.5724324999609962],['target'],518027,001,2024-10-10_19h49.07.379,Task3_VisualSearch,2024.1.5,None,2024-10-10 19h49.18.265112 +0530,
65,0,65,0,98.09246199997142,,98.06723579997197,5,98.09246199997142,98.09246199997142,0.016067099990323186,99.28490480000619,[-0.2759259259259259],[-0.15555555555555556],[1],[0],[0],[1.201710700057447],['target'],518027,001,2024-10-10_19h49.07.379,Task3_VisualSearch,2024.1.5,None,2024-10-10 19h49.18.265112 +0530,
66,0,66,0,99.3230827000225,,99.29235470003914,5,99.3230827000225,99.3230827000225,0.02097049995791167,100.78814700001385,[-0.41944444444444445],[-0.3814814814814815],[1],[0],[0],[1.4756331000244245],['target'],518027,001,2024-10-10_19h49.07.379,Task3_VisualSearch,2024.1.5,None,2024-10-10 19h49.18.265112 +0530,
67,0,67,0,100.83183559996542,,100.79556100000627,5,100.83183559996542,100.83183559996542,0.02683210000395775,102.35145399998873,[0.23333333333333334],[-0.42685185185185187],[1],[0],[0],[1.5297794000944123],['target'],518027,001,2024-10-10_19h49.07.379,Task3_VisualSearch,2024.1.5,None,2024-10-10 19h49.18.265112 +0530,
68,0,68,0,102.414282899932,,102.35923950001597,10,102.414282899932,102.414282899932,0.03978570003528148,103.36749620002229,[0.13148148148148148],[-0.14814814814814814],[1],[0],[0],[0.969609500025399],['target'],518027,001,2024-10-10_19h49.07.379,Task3_VisualSearch,2024.1.5,None,2024-10-10 19h49.18.265112 +0530,
69,0,69,0,103.43249199993443,,103.3719178000465,10,103.43249199993443,103.43249199993443,0.04679639998357743,104.70236560003832,[0.05925925925925926],[0.337037037037037],[1],[0],[0],[1.284197899978608],['target'],518027,001,2024-10-10_19h49.07.379,Task3_VisualSearch,2024.1.5,None,2024-10-10 19h49.18.265112 +0530,
70,0,70,0,104.75053930003196,,104.70548969996162,10,104.75053930003196,104.75053930003196,0.02873879997059703,105.5509735000087,[0.12314814814814815],[0.22870370370370371],[1],[0],[0],[0.8167149000801146],['target'],518027,001,2024-10-10_19h49.07.379,Task3_VisualSearch,2024.1.5,None,2024-10-10 19h49.18.265112 +0530,
71,0,71,0,105.60255219996907,,105.5564013000112,10,105.60255219996907,105.60255219996907,0.030485800001770258,107.1883674999699,[-0.33055555555555555],[-0.30185185185185187],[1],[0],[0],[1.6020116999279708],['target'],518027,001,2024-10-10_19h49.07.379,Task3_VisualSearch,2024.1.5,None,2024-10-10 19h49.18.265112 +0530,
72,0,72,0,107.2399093999993,,107.19394829997327,10,107.2399093999993,107.2399093999993,0.03074780001770705,108.36707249993924,[-0.06666666666666667],[0.09259259259259259],[1],[0],[0],[1.143102700007148],['target'],518027,001,2024-10-10_19h49.07.379,Task3_VisualSearch,2024.1.5,None,2024-10-10 19h49.18.265112 +0530,
73,0,73,0,108.41613060003147,,108.3721081999829,5,108.41613060003147,108.41613060003147,0.029933199984952807,109.66712859994732,[-0.3037037037037037],[-0.05740740740740741],[1],[0],[0],[1.2655582000734285],['target'],518027,001,2024-10-10_19h49.07.379,Task3_VisualSearch,2024.1.5,None,2024-10-10 19h49.18.265112 +0530,
74,0,74,0,109.70178460003808,,109.67391290003434,5,109.70178460003808,109.70178460003808,0.01830220001284033,111.08396009996068,[0.2175925925925926],[0.013888888888888888],[1],[0],[0],[1.3919603000395],['target'],518027,001,2024-10-10_19h49.07.379,Task3_VisualSearch,2024.1.5,None,2024-10-10 19h49.18.265112 +0530,
75,0,75,0,111.1399531000061,,111.09090019995347,10,111.1399531000061,111.1399531000061,0.03322039998602122,112.48305329994764,[0.40185185185185185],[-0.16018518518518518],[1],[0],[0],[1.3597470000386238],['target'],518027,001,2024-10-10_19h49.07.379,Task3_VisualSearch,2024.1.5,None,2024-10-10 19h49.18.265112 +0530,
76,0,76,0,112.5354459999362,,112.48812270001508,5,112.5354459999362,112.5354459999362,0.02970139996614307,113.60100559995044,[0.021296296296296296],[0.3537037037037037],[1],[0],[0],[1.083648799918592],['target'],518027,001,2024-10-10_19h49.07.379,Task3_VisualSearch,2024.1.5,None,2024-10-10 19h49.18.265112 +0530,
77,0,77,0,113.66829159995541,,113.60850780003238,10,113.66829159995541,113.66829159995541,0.04505059996154159,114.85025030001998,[0.3907407407407407],[-0.20833333333333334],[1],[0],[0],[1.1975980999413878],['target'],518027,001,2024-10-10_19h49.07.379,Task3_VisualSearch,2024.1.5,None,2024-10-10 19h49.18.265112 +0530,
78,0,78,0,114.91643079998903,,114.85767890000716,10,114.91643079998903,114.91643079998903,0.04476239997893572,117.39950850000605,[-0.28055555555555556],[-0.001851851851851852],[1],[0],[0],[2.498138800030574],[],518027,001,2024-10-10_19h49.07.379,Task3_VisualSearch,2024.1.5,None,2024-10-10 19h49.18.265112 +0530,
79,0,79,0,117.42992529994808,,117.40370629995596,5,117.42992529994808,117.42992529994808,0.015991399995982647,118.38435169996228,[-0.39351851851851855],[-0.009259259259259259],[1],[0],[0],[0.9646722000325099],['target'],518027,001,2024-10-10_19h49.07.379,Task3_VisualSearch,2024.1.5,None,2024-10-10 19h49.18.265112 +0530,
80,0,80,0,118.45691489998717,,118.39178880001418,10,118.45691489998717,118.45691489998717,0.04802029998973012,119.29845739994198,[0.02962962962962963],[0.15833333333333333],[1],[0],[0],[0.859335400047712],['target'],518027,001,2024-10-10_19h49.07.379,Task3_VisualSearch,2024.1.5,None,2024-10-10 19h49.18.265112 +0530,
81,0,81,0,119.38082580000628,,119.30560299998615,10,119.38082580000628,119.38082580000628,0.059107700013555586,120.63300699996762,[-0.3333333333333333],[-0.21296296296296297],[1],[0],[0],[1.2693906999193132],[],518027,001,2024-10-10_19h49.07.379,Task3_VisualSearch,2024.1.5,None,2024-10-10 19h49.18.265112 +0530,
82,0,82,0,120.6834472999908,,120.63726630003657,10,120.6834472999908,120.6834472999908,0.029103900073096156,121.45282070001122,[-0.08518518518518518],[0.07037037037037037],[1],[0],[0],[0.7867062999866903],['target'],518027,001,2024-10-10_19h49.07.379,Task3_VisualSearch,2024.1.5,None,2024-10-10 19h49.18.265112 +0530,
83,0,83,0,121.5048285999801,,121.45774220000021,10,121.5048285999801,121.5048285999801,0.03115529997739941,122.93892009998672,[-0.020370370370370372],[-0.3712962962962963],[1],[0],[0],[1.4502600999549031],[],518027,001,2024-10-10_19h49.07.379,Task3_VisualSearch,2024.1.5,None,2024-10-10 19h49.18.265112 +0530,
84,0,84,0,122.9740733000217,,122.94597170001362,5,122.9740733000217,122.9740733000217,0.019012699951417744,123.83452090003993,[0.3787037037037037],[-0.03518518518518519],[1],[0],[0],[0.8699064999818802],['target'],518027,001,2024-10-10_19h49.07.379,Task3_VisualSearch,2024.1.5,None,2024-10-10 19h49.18.265112 +0530,
85,0,85,0,123.89532000001054,,123.84218869998585,10,123.89532000001054,123.89532000001054,0.03848460002336651,124.85175269993488,[0.30925925925925923],[-0.17777777777777778],[1],[0],[0],[0.9722231000196189],['target'],518027,001,2024-10-10_19h49.07.379,Task3_VisualSearch,2024.1.5,None,2024-10-10 19h49.18.265112 +0530,
86,0,86,0,124.91966949997004,,124.85654940002132,10,124.91966949997004,124.91966949997004,0.04695339989848435,127.08661520003807,[-0.07407407407407407],[0.43148148148148147],[1],[0],[0],[2.1831985000753775],['target'],518027,001,2024-10-10_19h49.07.379,Task3_VisualSearch,2024.1.5,None,2024-10-10 19h49.18.265112 +0530,
87,0,87,0,127.17608540004585,,127.09428940003272,10,127.17608540004585,127.17608540004585,0.05550400004722178,128.39310470002238,[-0.062037037037037036],[0.4361111111111111],[1],[0],[0],[1.2443013000302017],['target'],518027,001,2024-10-10_19h49.07.379,Task3_VisualSearch,2024.1.5,None,2024-10-10 19h49.18.265112 +0530,
88,0,88,0,128.435373299988,,128.40040389995556,5,128.435373299988,128.435373299988,0.024903599987737834,129.71589949994814,[0.32592592592592595],[-0.17685185185185184],[1],[0],[0],[1.2915911000454798],['target'],518027,001,2024-10-10_19h49.07.379,Task3_VisualSearch,2024.1.5,None,2024-10-10 19h49.18.265112 +0530,
89,0,89,0,129.75092859996948,,129.72292029997334,5,129.75092859996948,129.75092859996948,0.018892199965193868,131.03584929998033,[0.22592592592592592],[0.3],[1],[0],[0],[1.2947931999806315],['target'],518027,001,2024-10-10_19h49.07.379,Task3_VisualSearch,2024.1.5,None,2024-10-10 19h49.18.265112 +0530,
90,0,90,0,131.10083639994264,,131.04339140001684,10,131.10083639994264,131.10083639994264,0.040543199982494116,133.0405581999803,[-0.42592592592592593],[0.40925925925925927],[1],[0],[0],[1.9574716000352055],['target'],518027,001,2024-10-10_19h49.07.379,Task3_VisualSearch,2024.1.5,None,2024-10-10 19h49.18.265112 +0530,
91,0,91,0,133.09605329995975,,133.04812349996064,5,133.09605329995975,133.09605329995975,0.030132499989122152,134.3997891000472,[0.5027777777777778],[-0.13796296296296295],[1],[0],[0],[1.3224160999525338],['target'],518027,001,2024-10-10_19h49.07.379,Task3_VisualSearch,2024.1.5,None,2024-10-10 19h49.18.265112 +0530,
92,0,92,0,134.47075610002503,,134.4054247000022,10,134.47075610002503,134.47075610002503,0.04298600007314235,136.70338620000985,[-0.15462962962962962],[-0.39166666666666666],[1],[0],[0],[2.2553823000052944],[],518027,001,2024-10-10_19h49.07.379,Task3_VisualSearch,2024.1.5,None,2024-10-10 19h49.18.265112 +0530,
93,0,93,0,136.73694039997645,,136.70937769999728,5,136.73694039997645,136.73694039997645,0.0183070000493899,137.9329701999668,[-0.4425925925925926],[0.005555555555555556],[1],[0],[0],[1.205637599923648],['target'],518027,001,2024-10-10_19h49.07.379,Task3_VisualSearch,2024.1.5,None,2024-10-10 19h49.18.265112 +0530,
94,0,94,0,138.02306219993625,,137.94048859993927,10,138.02306219993625,138.02306219993625,0.06342519994359463,139.9817339000292,[0.41388888888888886],[0.2972222222222222],[1],[0],[0],[1.978976699989289],['target'],518027,001,2024-10-10_19h49.07.379,Task3_VisualSearch,2024.1.5,None,2024-10-10 19h49.18.265112 +0530,
95,0,95,0,140.03129590000026,,139.98688059998676,5,140.03129590000026,140.03129590000026,0.03207090008072555,141.28247810003813,[0.3472222222222222],[-0.022222222222222223],[1],[0],[0],[1.2637948000337929],[],518027,001,2024-10-10_19h49.07.379,Task3_VisualSearch,2024.1.5,None,2024-10-10 19h49.18.265112 +0530,
96,0,96,0,141.3816300999606,,141.28962970001157,10,141.3816300999606,141.3816300999606,0.06357340002432466,142.4260717999423,[0.43425925925925923],[-0.04814814814814815],[1],[0],[0],[1.073865200043656],[],518027,001,2024-10-10_19h49.07.379,Task3_VisualSearch,2024.1.5,None,2024-10-10 19h49.18.265112 +0530,
97,0,97,0,142.4810399999842,,142.43258529994637,10,142.4810399999842,142.4810399999842,0.032266899943351746,146.66728499997407,[-0.014814814814814815],[-0.28055555555555556],[1],[0],[0],[4.203088199952617],['target'],518027,001,2024-10-10_19h49.07.379,Task3_VisualSearch,2024.1.5,None,2024-10-10 19h49.18.265112 +0530,
98,0,98,0,146.69758150004782,,146.67089039995335,5,146.69758150004782,146.69758150004782,0.01459829998202622,147.93308899994008,[-0.46574074074074073],[-0.4009259259259259],[1],[0],[0],[1.2476257999660447],['target'],518027,001,2024-10-10_19h49.07.379,Task3_VisualSearch,2024.1.5,None,2024-10-10 19h49.18.265112 +0530,
99,0,99,0,147.99145420000423,,147.94035559997428,10,147.99145420000423,147.99145420000423,0.03539890004321933,149.41674150002655,[0.03425925925925926],[0.025925925925925925],[1],[0],[0],[1.442084899987094],['target'],518027,001,2024-10-10_19h49.07.379,Task3_VisualSearch,2024.1.5,None,2024-10-10 19h49.18.265112 +0530,
100,0,100,0,149.48281109996606,,149.42175880004652,10,149.48281109996606,149.48281109996606,0.0448894000146538,151.47497570002452,[-0.4287037037037037],[-0.046296296296296294],[1],[0],[0],[2.008748700027354],['target'],518027,001,2024-10-10_19h49.07.379,Task3_VisualSearch,2024.1.5,None,2024-10-10 19h49.18.265112 +0530,
101,0,101,0,151.5613554000156,,151.48190729995258,10,151.5613554000156,151.5613554000156,0.05271289998199791,152.32312730001286,[-0.4074074074074074],[0.011111111111111112],[1],[0],[0],[0.7895271999295801],['target'],518027,001,2024-10-10_19h49.07.379,Task3_VisualSearch,2024.1.5,None,2024-10-10 19h49.18.265112 +0530,
102,0,102,0,152.3731103000464,,152.3281650999561,10,152.3731103000464,152.3731103000464,0.029294000007212162,153.7363624999998,[0.35648148148148145],[0.06481481481481481],[1],[0],[0],[1.3792432999471202],[],518027,001,2024-10-10_19h49.07.379,Task3_VisualSearch,2024.1.5,None,2024-10-10 19h49.18.265112 +0530,
103,0,103,0,153.78382430004422,,153.74342960002832,5,153.78382430004422,153.78382430004422,0.027481299941428006,154.89854960003868,[-0.12314814814814815],[0.23333333333333334],[1],[0],[0],[1.128292099921964],['target'],518027,001,2024-10-10_19h49.07.379,Task3_VisualSearch,2024.1.5,None,2024-10-10 19h49.18.265112 +0530,
104,0,104,0,154.95643829996698,,154.9062389000319,5,154.95643829996698,154.95643829996698,0.034016799996607006,156.26514569995925,[0.19444444444444445],[0.18888888888888888],[1],[0],[0],[1.3260768000036478],['target'],518027,001,2024-10-10_19h49.07.379,Task3_VisualSearch,2024.1.5,None,2024-10-10 19h49.18.265112 +0530,
105,0,105,0,156.32224639994092,,156.27201229997445,10,156.32224639994092,156.32224639994092,0.032046200009062886,157.9089657999575,[-0.07314814814814814],[-0.4203703703703704],[1],[0],[0],[1.6054898999864236],['target'],518027,001,2024-10-10_19h49.07.379,Task3_VisualSearch,2024.1.5,None,2024-10-10 19h49.18.265112 +0530,
106,0,106,0,157.95140799996443,,157.91658700001426,5,157.95140799996443,157.95140799996443,0.025792700005695224,159.58490599994548,[0.16666666666666666],[0.1824074074074074],[1],[0],[0],[1.6435006000101566],['target'],518027,001,2024-10-10_19h49.07.379,Task3_VisualSearch,2024.1.5,None,2024-10-10 19h49.18.265112 +0530,
107,0,107,0,159.6315713999793,,159.5922375000082,5,159.6315713999793,159.6315713999793,0.029624400078319013,161.19820929993875,[-0.2638888888888889],[-0.08518518518518518],[1],[0],[0],[1.5771498999092728],['target'],518027,001,2024-10-10_19h49.07.379,Task3_VisualSearch,2024.1.5,None,2024-10-10 19h49.18.265112 +0530,
108,0,108,0,161.23969419999048,,161.20544529997278,5,161.23969419999048,161.23969419999048,0.025643400033004582,162.3983367999317,[-0.3861111111111111],[0.30462962962962964],[1],[0],[0],[1.1679362000431865],['target'],518027,001,2024-10-10_19h49.07.379,Task3_VisualSearch,2024.1.5,None,2024-10-10 19h49.18.265112 +0530,
109,0,109,0,162.46951419999823,,162.4058610999491,10,162.46951419999823,162.46951419999823,0.04724350001197308,163.7779726999579,[-0.30833333333333335],[-0.425],[1],[0],[0],[1.3256118000717834],['target'],518027,001,2024-10-10_19h49.07.379,Task3_VisualSearch,2024.1.5,None,2024-10-10 19h49.18.265112 +0530,
110,0,110,0,163.82006960001308,,163.78508970001712,5,163.82006960001308,163.82006960001308,0.024140599998645484,165.09793869999703,[-0.3712962962962963],[0.32222222222222224],[1],[0],[0],[1.289461400010623],['target'],518027,001,2024-10-10_19h49.07.379,Task3_VisualSearch,2024.1.5,None,2024-10-10 19h49.18.265112 +0530,
111,0,111,0,165.16155740001705,,165.10539619997144,10,165.16155740001705,165.16155740001705,0.041691599995829165,167.41933289996814,[0.43425925925925923],[0.024074074074074074],[1],[0],[0],[2.273133000009693],['target'],518027,001,2024-10-10_19h49.07.379,Task3_VisualSearch,2024.1.5,None,2024-10-10 19h49.18.265112 +0530,
112,0,112,0,167.4750584999565,,167.42638039996382,10,167.4750584999565,167.4750584999565,0.033064600080251694,168.54854720004369,[0.21851851851851853],[0.2101851851851852],[1],[0],[0],[1.0897984999464825],['target'],518027,001,2024-10-10_19h49.07.379,Task3_VisualSearch,2024.1.5,None,2024-10-10 19h49.18.265112 +0530,
113,0,113,0,168.61310339998454,,168.55563179997262,10,168.61310339998454,168.61310339998454,0.04221699992194772,171.3320534999948,[-0.31574074074074077],[-0.18055555555555555],[1],[0],[0],[2.7353023999603465],['target'],518027,001,2024-10-10_19h49.07.379,Task3_VisualSearch,2024.1.5,None,2024-10-10 19h49.18.265112 +0530,
114,0,114,0,171.36138979997486,,171.33576669998,5,171.36138979997486,171.36138979997486,0.01565050007775426,173.51386860001367,[0.3925925925925926],[-0.4648148148148148],[1],[0],[0],[2.1625683000311255],['target'],518027,001,2024-10-10_19h49.07.379,Task3_VisualSearch,2024.1.5,None,2024-10-10 19h49.18.265112 +0530,
115,0,115,0,173.54794159997255,,173.51960570004303,5,173.54794159997255,173.54794159997255,0.018271999899297953,175.06393079995178,[0.1537037037037037],[-0.028703703703703703],[1],[0],[0],[1.526465700007975],['target'],518027,001,2024-10-10_19h49.07.379,Task3_VisualSearch,2024.1.5,None,2024-10-10 19h49.18.265112 +0530,
116,0,116,0,175.10273199994117,,175.07126779993996,5,175.10273199994117,175.10273199994117,0.022618600050918758,176.36405189998914,[0.19166666666666668],[-0.13518518518518519],[1],[0],[0],[1.2708813999779522],['target'],518027,001,2024-10-10_19h49.07.379,Task3_VisualSearch,2024.1.5,None,2024-10-10 19h49.18.265112 +0530,
117,0,117,0,176.43577340000775,,176.3717547999695,10,176.43577340000775,176.43577340000775,0.049071500077843666,177.9640306000365,[-0.3138888888888889],[0.20462962962962963],[1],[0],[0],[1.5441835999954492],['target'],518027,001,2024-10-10_19h49.07.379,Task3_VisualSearch,2024.1.5,None,2024-10-10 19h49.18.265112 +0530,
118,0,118,0,177.99769560003188,,177.9692011999432,5,177.99769560003188,177.99769560003188,0.01780920010060072,179.33103250002023,[0.4564814814814815],[0.18518518518518517],[1],[0],[0],[1.3443254000740126],['target'],518027,001,2024-10-10_19h49.07.379,Task3_VisualSearch,2024.1.5,None,2024-10-10 19h49.18.265112 +0530,
119,0,119,0,179.39177129999734,,179.3383398000151,10,179.39177129999734,179.39177129999734,0.03595900000073016,181.28130929998588,[-0.38796296296296295],[-0.3416666666666667],[1],[0],[0],[1.907927899970673],['target'],518027,001,2024-10-10_19h49.07.379,Task3_VisualSearch,2024.1.5,None,2024-10-10 19h49.18.265112 +0530,
120,0,120,0,181.3488296000287,,181.2884876000462,10,181.3488296000287,181.3488296000287,0.04078089992981404,182.6964896999998,[0.18333333333333332],[0.22037037037037038],[1],[0],[0],[1.3681732999393716],[],518027,001,2024-10-10_19h49.07.379,Task3_VisualSearch,2024.1.5,None,2024-10-10 19h49.18.265112 +0530,
121,0,121,0,182.74435129994527,,182.70022300002165,10,182.74435129994527,182.74435129994527,0.027856100001372397,183.84503550000954,[-0.44907407407407407],[-0.03333333333333333],[1],[0],[0],[1.1172611999791116],['target'],518027,001,2024-10-10_19h49.07.379,Task3_VisualSearch,2024.1.5,None,2024-10-10 19h49.18.265112 +0530,
122,0,122,0,183.90563509997446,,183.85143839998636,10,183.90563509997446,183.90563509997446,0.03508429997600615,185.3886296999408,[0.062037037037037036],[0.3648148148148148],[1],[0],[0],[1.5029625999741256],['target'],518027,001,2024-10-10_19h49.07.379,Task3_VisualSearch,2024.1.5,None,2024-10-10 19h49.18.265112 +0530,
123,0,123,0,185.45312099996954,,185.39550079999026,10,185.45312099996954,185.45312099996954,0.04342140001244843,187.08011370000895,[0.1287037037037037],[-0.42962962962962964],[1],[0],[0],[1.641863500000909],['target'],518027,001,2024-10-10_19h49.07.379,Task3_VisualSearch,2024.1.5,None,2024-10-10 19h49.18.265112 +0530,
124,0,124,0,187.14205250004306,,187.0873534999555,10,187.14205250004306,187.14205250004306,0.038574400008656085,187.81929849996231,[0.03888888888888889],[-0.20185185185185187],[1],[0],[0],[0.6943007999798283],['target'],518027,001,2024-10-10_19h49.07.379,Task3_VisualSearch,2024.1.5,None,2024-10-10 19h49.18.265112 +0530,
125,0,125,0,187.9138687000377,,187.82632150000427,10,187.9138687000377,187.9138687000377,0.05943350004963577,188.93085619993508,[0.14537037037037037],[0.3351851851851852],[1],[0],[0],[1.0459855999797583],['target'],518027,001,2024-10-10_19h49.07.379,Task3_VisualSearch,2024.1.5,None,2024-10-10 19h49.18.265112 +0530,
126,0,126,0,188.96312169998419,,188.9365196999861,5,188.96312169998419,188.96312169998419,0.01722799998242408,189.78042309999,[0.38055555555555554],[0.38796296296296295],[1],[0],[0],[0.8270918999332935],[],518027,001,2024-10-10_19h49.07.379,Task3_VisualSearch,2024.1.5,None,2024-10-10 19h49.18.265112 +0530,
127,0,127,0,189.82417509995867,,189.78742309997324,5,189.82417509995867,189.82417509995867,0.02731649996712804,190.71810589998495,[0.25277777777777777],[-0.06851851851851852],[1],[0],[0],[0.9043040999677032],['target'],518027,001,2024-10-10_19h49.07.379,Task3_VisualSearch,2024.1.5,None,2024-10-10 19h49.18.265112 +0530,
128,0,128,0,190.7830030999612,,190.7252329000039,10,190.7830030999612,190.7830030999612,0.04200639994814992,192.03325630002655,[0.016666666666666666],[0.2462962962962963],[1],[0],[0],[1.2667259000008926],['target'],518027,001,2024-10-10_19h49.07.379,Task3_VisualSearch,2024.1.5,None,2024-10-10 19h49.18.265112 +0530,
129,0,129,0,192.08420289994683,,192.04036069998983,5,192.08420289994683,192.08420289994683,0.03260379994753748,192.8311952999793,[0.025925925925925925],[-0.018518518518518517],[1],[0],[0],[0.7590529000153765],['target'],518027,001,2024-10-10_19h49.07.379,Task3_VisualSearch,2024.1.5,None,2024-10-10 19h49.18.265112 +0530,
130,0,130,0,192.88768030004576,,192.83842869999353,5,192.88768030004576,192.88768030004576,0.0330365999834612,193.8307541999966,[0.21296296296296297],[0.40555555555555556],[1],[0],[0],[0.9602100000483915],['target'],518027,001,2024-10-10_19h49.07.379,Task3_VisualSearch,2024.1.5,None,2024-10-10 19h49.18.265112 +0530,
131,0,131,0,193.88551009993535,,193.83822020003572,5,193.88551009993535,193.88551009993535,0.032628700020723045,194.99638619995676,[-0.24537037037037038],[-0.06296296296296296],[1],[0],[0],[1.1264933999627829],['target'],518027,001,2024-10-10_19h49.07.379,Task3_VisualSearch,2024.1.5,None,2024-10-10 19h49.18.265112 +0530,
132,0,132,0,195.05217409995385,,195.00293560000136,5,195.05217409995385,195.05217409995385,0.03212390001863241,196.213055399945,[0.1388888888888889],[0.4861111111111111],[1],[0],[0],[1.1788068999303505],[],518027,001,2024-10-10_19h49.07.379,Task3_VisualSearch,2024.1.5,None,2024-10-10 19h49.18.265112 +0530,
133,0,133,0,196.28402809996624,,196.22048899997026,10,196.28402809996624,196.28402809996624,0.04899969999678433,198.32264449994545,[0.32222222222222224],[-0.12129629629629629],[1],[0],[0],[2.0539770999457687],[],518027,001,2024-10-10_19h49.07.379,Task3_VisualSearch,2024.1.5,None,2024-10-10 19h49.18.265112 +0530,
134,0,134,0,198.39325059996918,,198.32999959995504,10,198.39325059996918,198.39325059996918,0.04782960005104542,199.63944950001314,[-0.026851851851851852],[0.3277777777777778],[1],[0],[0],[1.26241059997119],['target'],518027,001,2024-10-10_19h49.07.379,Task3_VisualSearch,2024.1.5,None,2024-10-10 19h49.18.265112 +0530,
135,0,135,0,199.68870109994896,,199.64661429997068,5,199.68870109994896,199.68870109994896,0.03085420001298189,200.81282849994022,[0.22314814814814815],[-0.3388888888888889],[1],[0],[0],[1.1362261000322178],[],518027,001,2024-10-10_19h49.07.379,Task3_VisualSearch,2024.1.5,None,2024-10-10 19h49.18.265112 +0530,
136,0,136,0,200.86124230001587,,200.82069740002044,5,200.86124230001587,200.86124230001587,0.029113200027495623,202.14677170000505,[0.5138888888888888],[0.44351851851851853],[1],[0],[0],[1.2976574000203982],[],518027,001,2024-10-10_19h49.07.379,Task3_VisualSearch,2024.1.5,None,2024-10-10 19h49.18.265112 +0530,
137,0,137,0,202.18861760001164,,202.1542246999452,5,202.18861760001164,202.18861760001164,0.025355299934744835,203.2457767999731,[0.3175925925925926],[-0.18425925925925926],[1],[0],[0],[1.0672497999621555],['target'],518027,001,2024-10-10_19h49.07.379,Task3_VisualSearch,2024.1.5,None,2024-10-10 19h49.18.265112 +0530,
138,0,138,0,203.31380150001496,,203.2534439000301,10,203.31380150001496,203.31380150001496,0.04654960008338094,204.47880779998377,[-0.19722222222222222],[0.1814814814814815],[1],[0],[0],[1.1801336999051273],['target'],518027,001,2024-10-10_19h49.07.379,Task3_VisualSearch,2024.1.5,None,2024-10-10 19h49.18.265112 +0530,
139,0,139,0,204.5094289999688,,204.4832172000315,5,204.5094289999688,204.5094289999688,0.015564500004984438,205.39665370003786,[-0.1962962962962963],[-0.362962962962963],[1],[0],[0],[0.8979754999745637],[],518027,001,2024-10-10_19h49.07.379,Task3_VisualSearch,2024.1.5,None,2024-10-10 19h49.18.265112 +0530,
140,0,140,0,205.43810919998214,,205.4043045999715,5,205.43810919998214,205.43810919998214,0.025506500038318336,206.22873910004273,[0.017592592592592594],[-0.32222222222222224],[1],[0],[0],[0.8000164000550285],['target'],518027,001,2024-10-10_19h49.07.379,Task3_VisualSearch,2024.1.5,None,2024-10-10 19h49.18.265112 +0530,
141,0,141,0,206.26163990003988,,206.2343881999841,5,206.26163990003988,206.26163990003988,0.017975899972952902,208.34650590003002,[-0.25277777777777777],[0.21666666666666667],[1],[0],[0],[2.094247000059113],['target'],518027,001,2024-10-10_19h49.07.379,Task3_VisualSearch,2024.1.5,None,2024-10-10 19h49.18.265112 +0530,
142,0,142,0,208.4158405000344,,208.353811900015,10,208.4158405000344,208.4158405000344,0.04701849992852658,209.07977820001543,[-0.001851851851851852],[0.1685185185185185],[1],[0],[0],[0.6797225000336766],['target'],518027,001,2024-10-10_19h49.07.379,Task3_VisualSearch,2024.1.5,None,2024-10-10 19h49.18.265112 +0530,
143,0,143,0,209.15795389993582,,209.0874218000099,10,209.15795389993582,209.15795389993582,0.053805400035344064,209.76740200002678,[-0.027777777777777776],[0.11574074074074074],[1],[0],[0],[0.6271762000396848],['target'],518027,001,2024-10-10_19h49.07.379,Task3_VisualSearch,2024.1.5,None,2024-10-10 19h49.18.265112 +0530,
144,0,144,0,209.81927410000935,,209.77272709994577,10,209.81927410000935,209.81927410000935,0.030890700058080256,211.3861625000136,[-0.4111111111111111],[0.009259259259259259],[1],[0],[0],[1.5831449000397697],[],518027,001,2024-10-10_19h49.07.379,Task3_VisualSearch,2024.1.5,None,2024-10-10 19h49.18.265112 +0530,
145,0,145,0,211.4144135999959,,211.38994110003114,5,211.4144135999959,211.4144135999959,0.014749999972991645,212.02899100002833,[-0.17314814814814813],[0.003703703703703704],[1],[0],[0],[0.6244174999883398],[],518027,001,2024-10-10_19h49.07.379,Task3_VisualSearch,2024.1.5,None,2024-10-10 19h49.18.265112 +0530,
146,0,146,0,212.0766199999489,,212.03649039997254,5,212.0766199999489,212.0766199999489,0.02939969999715686,213.04564160003792,[-0.3768518518518518],[-0.05092592592592592],[1],[0],[0],[0.9806096999673173],[],518027,001,2024-10-10_19h49.07.379,Task3_VisualSearch,2024.1.5,None,2024-10-10 19h49.18.265112 +0530,
147,0,147,0,213.0823085999582,,213.05280339997262,5,213.0823085999582,213.0823085999582,0.020006799953989685,214.09589759993833,[-0.30185185185185187],[0.26296296296296295],[1],[0],[0],[1.02360920002684],['target'],518027,001,2024-10-10_19h49.07.379,Task3_VisualSearch,2024.1.5,None,2024-10-10 19h49.18.265112 +0530,
148,0,148,0,214.16238590003923,,214.10334229993168,10,214.16238590003923,214.16238590003923,0.043733500060625374,216.45248760003597,[0.18981481481481483],[0.07777777777777778],[1],[0],[0],[2.3064171998994425],['target'],518027,001,2024-10-10_19h49.07.379,Task3_VisualSearch,2024.1.5,None,2024-10-10 19h49.18.265112 +0530,
149,0,149,0,216.4807033999823,,216.45663439994678,5,216.4807033999823,216.4807033999823,0.015457200002856553,217.66308279999066,[0.3861111111111111],[0.1425925925925926],[1],[0],[0],[1.1910323000047356],['target'],518027,001,2024-10-10_19h49.07.379,Task3_VisualSearch,2024.1.5,None,2024-10-10 19h49.18.265112 +0530,
150,0,150,0,217.70942490000743,,217.6704564000247,5,217.70942490000743,217.70942490000743,0.029333899961784482,218.91269030002877,[-0.40185185185185185],[0.1527777777777778],[1],[0],[0],[1.213721999898553],[],518027,001,2024-10-10_19h49.07.379,Task3_VisualSearch,2024.1.5,None,2024-10-10 19h49.18.265112 +0530,
151,0,151,0,219.02125290001277,,218.92010330001358,10,219.02125290001277,219.02125290001277,0.07287310005631298,220.52673149993643,[-0.09351851851851851],[-0.39537037037037037],[1],[0],[0],[1.534730299958028],['target'],518027,001,2024-10-10_19h49.07.379,Task3_VisualSearch,2024.1.5,None,2024-10-10 19h49.18.265112 +0530,
152,0,152,0,220.57692200003657,,220.5322587999981,5,220.57692200003657,220.57692200003657,0.027421200065873563,222.27831600001082,[-0.17314814814814813],[0.19814814814814816],[1],[0],[0],[1.7190303000388667],[],518027,001,2024-10-10_19h49.07.379,Task3_VisualSearch,2024.1.5,None,2024-10-10 19h49.18.265112 +0530,
153,0,153,0,222.34122359997127,,222.28516890003812,5,222.34122359997127,222.34122359997127,0.04069709999021143,223.3452254999429,[0.05925925925925926],[0.39814814814814814],[1],[0],[0],[1.0200437000021338],['target'],518027,001,2024-10-10_19h49.07.379,Task3_VisualSearch,2024.1.5,None,2024-10-10 19h49.18.265112 +0530,
154,0,154,0,223.3978030999424,,223.3513082000427,10,223.3978030999424,223.3978030999424,0.03116679994855076,224.98337130004074,[0.04722222222222222],[-0.48055555555555557],[1],[0],[0],[1.601643200032413],[],518027,001,2024-10-10_19h49.07.379,Task3_VisualSearch,2024.1.5,None,2024-10-10 19h49.18.265112 +0530,
155,0,155,0,225.03523239993956,,224.98886020004284,5,225.03523239993956,225.03523239993956,0.03156059992033988,225.7805520000402,[0.005555555555555556],[-0.35648148148148145],[1],[0],[0],[0.760754199931398],['target'],518027,001,2024-10-10_19h49.07.379,Task3_VisualSearch,2024.1.5,None,2024-10-10 19h49.18.265112 +0530,
156,0,156,0,225.86889969999902,,225.78805780003313,10,225.86889969999902,225.86889969999902,0.05422980000730604,226.87195279996376,[-0.27314814814814814],[0.05925925925925926],[1],[0],[0],[1.0305948000168428],['target'],518027,001,2024-10-10_19h49.07.379,Task3_VisualSearch,2024.1.5,None,2024-10-10 19h49.18.265112 +0530,
157,0,157,0,226.916101800045,,226.87924269994255,5,226.916101800045,226.916101800045,0.02721890003886074,227.64605860004667,[-0.3111111111111111],[0.1],[1],[0],[0],[0.740349700092338],['target'],518027,001,2024-10-10_19h49.07.379,Task3_VisualSearch,2024.1.5,None,2024-10-10 19h49.18.265112 +0530,
158,0,158,0,227.7444356000051,,227.65369009994902,10,227.7444356000051,227.7444356000051,0.06286799989175051,228.87006800004747,[0.018518518518518517],[-0.42407407407407405],[1],[0],[0],[1.1545149000594392],[],518027,001,2024-10-10_19h49.07.379,Task3_VisualSearch,2024.1.5,None,2024-10-10 19h49.18.265112 +0530,
159,0,159,0,228.9462941000238,,228.87741640000604,10,228.9462941000238,228.9462941000238,0.04814569989684969,229.91017389995977,[0.06296296296296296],[0.41388888888888886],[1],[0],[0],[0.9854429999832064],[],518027,001,2024-10-10_19h49.07.379,Task3_VisualSearch,2024.1.5,None,2024-10-10 19h49.18.265112 +0530,
160,0,160,0,229.96822050004266,,229.91716219997033,10,229.96822050004266,229.96822050004266,0.03744719992391765,230.56100939994212,[0.07685185185185185],[0.14907407407407408],[1],[0],[0],[0.6073696999810636],[],518027,001,2024-10-10_19h49.07.379,Task3_VisualSearch,2024.1.5,None,2024-10-10 19h49.18.265112 +0530,
161,0,161,0,230.59059179993346,,230.56528899993282,5,230.59059179993346,230.59059179993346,0.015722400043159723,231.34566240001004,[0.030555555555555555],[-0.1],[1],[0],[0],[0.7644131999695674],[],518027,001,2024-10-10_19h49.07.379,Task3_VisualSearch,2024.1.5,None,2024-10-10 19h49.18.265112 +0530,
162,0,162,0,231.39656779996585,,231.35309089999646,5,231.39656779996585,231.39656779996585,0.03182489995379001,232.51124879997224,[-0.07222222222222222],[0.2851851851851852],[1],[0],[0],[1.1272007999941707],['target'],518027,001,2024-10-10_19h49.07.379,Task3_VisualSearch,2024.1.5,None,2024-10-10 19h49.18.265112 +0530,
163,0,163,0,232.5603927000193,,232.51863850001246,5,232.5603927000193,232.5603927000193,0.02831090008839965,233.5444866999751,[0.3037037037037037],[0.38055555555555554],[1],[0],[0],[0.9983661998994648],['target'],518027,001,2024-10-10_19h49.07.379,Task3_VisualSearch,2024.1.5,None,2024-10-10 19h49.18.265112 +0530,
164,0,164,0,233.60830480000004,,233.55197130003944,10,233.60830480000004,233.60830480000004,0.040719299926422536,234.82726829999592,[-0.020370370370370372],[0.1259259259259259],[1],[0],[0],[1.2357748999493197],['target'],518027,001,2024-10-10_19h49.07.379,Task3_VisualSearch,2024.1.5,None,2024-10-10 19h49.18.265112 +0530,
165,0,165,0,234.8977313999785,,234.8322327999631,10,234.8977313999785,234.8977313999785,0.04897250002250075,236.88749460002873,[-0.487962962962963],[-0.325],[1],[0],[0],[2.0068895000731573],['target'],518027,001,2024-10-10_19h49.07.379,Task3_VisualSearch,2024.1.5,None,2024-10-10 19h49.18.265112 +0530,
166,0,166,0,236.91751279996242,,236.89229570003226,5,236.91751279996242,236.91751279996242,0.016074599931016564,238.0276452000253,[0.2796296296296296],[0.20925925925925926],[1],[0],[0],[1.1196262000594288],['target'],518027,001,2024-10-10_19h49.07.379,Task3_VisualSearch,2024.1.5,None,2024-10-10 19h49.18.265112 +0530,
167,0,167,0,238.0647509000264,,238.0347934999736,5,238.0647509000264,238.0647509000264,0.020553200040012598,238.9787168999901,[0.25092592592592594],[0.006481481481481481],[1],[0],[0],[0.9240443999879062],['target'],518027,001,2024-10-10_19h49.07.379,Task3_VisualSearch,2024.1.5,None,2024-10-10 19h49.18.265112 +0530,
168,0,168,0,239.0455661000451,,238.98628199996892,10,239.0455661000451,239.0455661000451,0.04358010005671531,240.12545699998736,[-0.32407407407407407],[0.10277777777777777],[1],[0],[0],[1.0964621999301016],['target'],518027,001,2024-10-10_19h49.07.379,Task3_VisualSearch,2024.1.5,None,2024-10-10 19h49.18.265112 +0530,
169,0,169,0,240.20464489993174,,240.1304391999729,10,240.20464489993174,240.20464489993174,0.05013730004429817,241.6074198000133,[0.2796296296296296],[-0.1287037037037037],[1],[0],[0],[1.4274856999982148],[],518027,001,2024-10-10_19h49.07.379,Task3_VisualSearch,2024.1.5,None,2024-10-10 19h49.18.265112 +0530,
170,0,170,0,241.653344499995,,241.6118439999409,10,241.653344499995,241.653344499995,0.027127100038342178,242.74416380003095,[-0.1398148148148148],[-0.1925925925925926],[1],[0],[0],[1.1056322999065742],['target'],518027,001,2024-10-10_19h49.07.379,Task3_VisualSearch,2024.1.5,None,2024-10-10 19h49.18.265112 +0530,
171,0,171,0,242.77353330003098,,242.7482548999833,5,242.77353330003098,242.77353330003098,0.015252500073984265,243.8108112999471,[0.05185185185185185],[-0.33240740740740743],[1],[0],[0],[1.047564100008458],[],518027,001,2024-10-10_19h49.07.379,Task3_VisualSearch,2024.1.5,None,2024-10-10 19h49.18.265112 +0530,
172,0,172,0,243.86772690003272,,243.8176020999672,10,243.86772690003272,243.86772690003272,0.033625599928200245,245.5945367999375,[0.2101851851851852],[-0.49907407407407406],[1],[0],[0],[1.744087600032799],['target'],518027,001,2024-10-10_19h49.07.379,Task3_VisualSearch,2024.1.5,None,2024-10-10 19h49.18.265112 +0530,
173,0,173,0,245.64383740001358,,245.6015822000336,5,245.64383740001358,245.64383740001358,0.030759099987335503,246.98153740004636,[-0.22037037037037038],[-0.3453703703703704],[1],[0],[0],[1.3499911000253633],['target'],518027,001,2024-10-10_19h49.07.379,Task3_VisualSearch,2024.1.5,None,2024-10-10 19h49.18.265112 +0530,
174,0,174,0,247.03135239996482,,246.98907030001283,5,247.03135239996482,247.03135239996482,0.03139699995517731,248.71174199995585,[-0.5037037037037037],[-0.3037037037037037],[1],[0],[0],[1.6920361000811681],['target'],518027,001,2024-10-10_19h49.07.379,Task3_VisualSearch,2024.1.5,None,2024-10-10 19h49.18.265112 +0530,
175,0,175,0,248.77980210003443,,248.71957710001152,10,248.77980210003443,248.77980210003443,0.04466280003543943,249.90594099997543,[0.4324074074074074],[-0.23981481481481481],[1],[0],[0],[1.143009899999015],['target'],518027,001,2024-10-10_19h49.07.379,Task3_VisualSearch,2024.1.5,None,2024-10-10 19h49.18.265112 +0530,
176,0,176,0,249.95674279995728,,249.90984969993588,10,249.95674279995728,249.95674279995728,0.028952700085937977,251.2581733999541,[0.32314814814814813],[0.2462962962962963],[1],[0],[0],[1.319641500012949],['target'],518027,001,2024-10-10_19h49.07.379,Task3_VisualSearch,2024.1.5,None,2024-10-10 19h49.18.265112 +0530,
177,0,177,0,251.28885080001783,,251.26260070002172,5,251.28885080001783,251.28885080001783,0.016608600039035082,252.84433869994245,[-0.20185185185185187],[0.18981481481481483],[1],[0],[0],[1.5652716000331566],['target'],518027,001,2024-10-10_19h49.07.379,Task3_VisualSearch,2024.1.5,None,2024-10-10 19h49.18.265112 +0530,
178,0,178,0,252.89970639999956,,252.85193050000817,5,252.89970639999956,252.89970639999956,0.0332862000213936,254.1606930999551,[-0.09537037037037037],[-0.028703703703703703],[1],[0],[0],[1.276272000046447],['target'],518027,001,2024-10-10_19h49.07.379,Task3_VisualSearch,2024.1.5,None,2024-10-10 19h49.18.265112 +0530,
179,0,179,0,254.20692989998497,,254.168388399994,5,254.20692989998497,254.20692989998497,0.029281700029969215,255.42812209995463,[-0.30462962962962964],[0.15648148148148147],[1],[0],[0],[1.2309125000610948],['target'],518027,001,2024-10-10_19h49.07.379,Task3_VisualSearch,2024.1.5,None,2024-10-10 19h49.18.265112 +0530,
180,0,180,0,255.48187549994327,,255.43557940004393,5,255.48187549994327,255.48187549994327,0.03389610000886023,256.46115180000197,[-0.4601851851851852],[0.2972222222222222],[1],[0],[0],[0.9922381000360474],['target'],518027,001,2024-10-10_19h49.07.379,Task3_VisualSearch,2024.1.5,None,2024-10-10 19h49.18.265112 +0530,
181,0,181,0,256.5556917999638,,256.46885359997395,10,256.5556917999638,256.5556917999638,0.060413400060497224,257.6980318999849,[-0.38425925925925924],[0.09444444444444444],[1],[0],[0],[1.1698147000279278],['target'],518027,001,2024-10-10_19h49.07.379,Task3_VisualSearch,2024.1.5,None,2024-10-10 19h49.18.265112 +0530,
182,0,182,0,257.7391254999675,,257.7051480000373,5,257.7391254999675,257.7391254999675,0.025499299983493984,258.96212599996943,[-0.10092592592592593],[0.19814814814814816],[1],[0],[0],[1.2322540000313893],['target'],518027,001,2024-10-10_19h49.07.379,Task3_VisualSearch,2024.1.5,None,2024-10-10 19h49.18.265112 +0530,
183,0,183,0,259.0078667999478,,258.96961299993563,5,259.0078667999478,259.0078667999478,0.02870770008303225,260.210672999965,[0.17777777777777778],[0.040740740740740744],[1],[0],[0],[1.2131181999575347],['target'],518027,001,2024-10-10_19h49.07.379,Task3_VisualSearch,2024.1.5,None,2024-10-10 19h49.18.265112 +0530,
184,0,184,0,260.2586918999441,,260.21840679994784,5,260.2586918999441,260.2586918999441,0.030644499929621816,261.3776515999343,[0.4305555555555556],[-0.42962962962962964],[1],[0],[0],[1.1289610000094399],['target'],518027,001,2024-10-10_19h49.07.379,Task3_VisualSearch,2024.1.5,None,2024-10-10 19h49.18.265112 +0530,
185,0,185,0,261.4676677000243,,261.3852103999816,10,261.4676677000243,261.4676677000243,0.05429749994073063,262.27580990002025,[0.3277777777777778],[0.14351851851851852],[1],[0],[0],[0.8376112999394536],['target'],518027,001,2024-10-10_19h49.07.379,Task3_VisualSearch,2024.1.5,None,2024-10-10 19h49.18.265112 +0530,
186,0,186,0,262.32844980002847,,262.280012800009,10,262.32844980002847,262.32844980002847,0.03181590000167489,263.2344531000126,[0.07685185185185185],[0.31203703703703706],[1],[0],[0],[0.9230798000935465],['target'],518027,001,2024-10-10_19h49.07.379,Task3_VisualSearch,2024.1.5,None,2024-10-10 19h49.18.265112 +0530,
187,0,187,0,263.2631126999622,,263.2376543999417,5,263.2631126999622,263.2631126999622,0.014883300056681037,264.17985109996516,[0.4074074074074074],[0.16018518518518518],[1],[0],[0],[0.9272545001003891],['target'],518027,001,2024-10-10_19h49.07.379,Task3_VisualSearch,2024.1.5,None,2024-10-10 19h49.18.265112 +0530,
188,0,188,0,264.2544322999893,,264.1872160999337,10,264.2544322999893,264.2544322999893,0.04917050001677126,266.58247919997666,[0.5055555555555555],[0.5],[1],[0],[0],[2.3469610000029206],['target'],518027,001,2024-10-10_19h49.07.379,Task3_VisualSearch,2024.1.5,None,2024-10-10 19h49.18.265112 +0530,
189,0,189,0,266.6094827000052,,266.58570890000556,5,266.6094827000052,266.6094827000052,0.01497299992479384,267.8439271999523,[-0.18703703703703703],[-0.4166666666666667],[1],[0],[0],[1.24314829998184],['target'],518027,001,2024-10-10_19h49.07.379,Task3_VisualSearch,2024.1.5,None,2024-10-10 19h49.18.265112 +0530,
190,0,190,0,267.8984055999899,,267.85068809997756,10,267.8984055999899,267.8984055999899,0.03221560001838952,270.0486977000255,[-0.4388888888888889],[-0.15833333333333333],[1],[0],[0],[2.166418800014071],['target'],518027,001,2024-10-10_19h49.07.379,Task3_VisualSearch,2024.1.5,None,2024-10-10 19h49.18.265112 +0530,
191,0,191,0,270.09788849996403,,270.0559160000412,5,270.09788849996403,270.09788849996403,0.029506899998523295,271.4097028999822,[0.09722222222222222],[0.44722222222222224],[1],[0],[0],[1.3251395999686792],[],518027,001,2024-10-10_19h49.07.379,Task3_VisualSearch,2024.1.5,None,2024-10-10 19h49.18.265112 +0530,
192,0,192,0,271.46016999997664,,271.4169335999759,5,271.46016999997664,271.46016999997664,0.03201189998071641,272.7428728999803,[-0.09444444444444444],[-0.08425925925925926],[1],[0],[0],[1.294818100053817],['target'],518027,001,2024-10-10_19h49.07.379,Task3_VisualSearch,2024.1.5,None,2024-10-10 19h49.18.265112 +0530,
193,0,193,0,272.7956072000088,,272.75043709995225,5,272.7956072000088,272.7956072000088,0.03331189998425543,273.97604420001153,[0.4675925925925926],[-0.14814814814814814],[1],[0],[0],[1.193151699961163],['target'],518027,001,2024-10-10_19h49.07.379,Task3_VisualSearch,2024.1.5,None,2024-10-10 19h49.18.265112 +0530,
194,0,194,0,274.0575543999439,,273.9827180999564,10,274.0575543999439,274.0575543999439,0.05126680003013462,275.38919429993257,[0.23425925925925925],[0.20277777777777778],[1],[0],[0],[1.3558145000133663],['target'],518027,001,2024-10-10_19h49.07.379,Task3_VisualSearch,2024.1.5,None,2024-10-10 19h49.18.265112 +0530,
195,0,195,0,275.45824609999545,,275.3941205999581,10,275.45824609999545,275.45824609999545,0.050612399936653674,276.9626316999784,[-0.008333333333333333],[-0.12685185185185185],[1],[0],[0],[1.5181478000013158],['target'],518027,001,2024-10-10_19h49.07.379,Task3_VisualSearch,2024.1.5,None,2024-10-10 19h49.18.265112 +0530,
196,0,196,0,277.02509060001466,,276.9698632999789,10,277.02509060001466,277.02509060001466,0.04212370002642274,278.33608509995975,[-0.2074074074074074],[-0.4861111111111111],[1],[0],[0],[1.3248513999860734],[],518027,001,2024-10-10_19h49.07.379,Task3_VisualSearch,2024.1.5,None,2024-10-10 19h49.18.265112 +0530,
197,0,197,0,278.3732738000108,,278.3432326000184,5,278.3732738000108,278.3732738000108,0.020990599994547665,279.2306776000187,[-0.3574074074074074],[-0.38333333333333336],[1],[0],[0],[0.867030700086616],['target'],518027,001,2024-10-10_19h49.07.379,Task3_VisualSearch,2024.1.5,None,2024-10-10 19h49.18.265112 +0530,
198,0,198,0,279.3056847000262,,279.23837399994954,10,279.3056847000262,279.3056847000262,0.0479491000296548,282.4975708000129,[-0.17592592592592593],[-0.46111111111111114],[1],[0],[0],[3.21225310000591],[],518027,001,2024-10-10_19h49.07.379,Task3_VisualSearch,2024.1.5,None,2024-10-10 19h49.18.265112 +0530,
199,0,199,0,282.54778300004546,,282.5047264000168,5,282.54778300004546,282.54778300004546,0.03228460007812828,283.7601082000183,[-0.40925925925925927],[-0.10092592592592593],[1],[0],[0],[1.2239538000430912],['target'],518027,001,2024-10-10_19h49.07.379,Task3_VisualSearch,2024.1.5,None,2024-10-10 19h49.18.265112 +0530,
