staircase.thisTrialN,staircase.stepSize,staircase.intensity,thisRow.t,notes,trial.started,fixation.started,grating.started,key_resp.started,fixation.stopped,grating.stopped,trial.stopped,corrAns,tilt,key_resp.corr,staircase.response,key_resp.rt,participant,session,date,expName,psychopyVersion,frameRate,expStart,
0,2,10.0,0.025949999995646067,,0.00910450000083074,0.025949999995646067,0.5695819999964442,0.5695819999964442,0.5762748999986798,0.8756416999967769,1.7951433999987785,left,-10.0,0,0,1.1209173999959603,182340,001,2024-09-12_20h41.00.415,adaptive_staircase,2024.1.5,None,2024-09-12 20h41.12.471714 +0530,
1,2,12.0,1.8080054000020027,,1.7952843999955803,1.8080054000020027,2.30906739999773,2.30906739999773,2.30906739999773,2.6092740000021877,3.1602306999993743,left,-12.0,0,0,0.8461992999946233,182340,001,2024-09-12_20h41.00.415,adaptive_staircase,2024.1.5,None,2024-09-12 20h41.12.471714 +0530,
2,2,14.0,3.1756235000066226,,3.160324700002093,3.1756235000066226,3.6595180000003893,3.6595180000003893,3.6762543999939226,3.9593459000025177,4.110543400005554,left,-14.0,0,0,0.4432037999940803,182340,001,2024-09-12_20h41.00.415,adaptive_staircase,2024.1.5,None,2024-09-12 20h41.12.471714 +0530,
3,2,16.0,4.125986900005955,,4.110662799997954,4.125986900005955,4.626036600006046,4.626036600006046,4.626036600006046,4.925664499998675,6.0105900000053225,left,-16.0,0,0,1.3787768999900436,182340,001,2024-09-12_20h41.00.415,adaptive_staircase,2024.1.5,None,2024-09-12 20h41.12.471714 +0530,
4,2,18.0,6.026363400000264,,6.010793900000863,6.026363400000264,6.608540300003369,6.608540300003369,6.608540300003369,6.908939100001589,7.759762799993041,left,-18.0,0,0,1.1340802000049734,182340,001,2024-09-12_20h41.00.415,adaptive_staircase,2024.1.5,None,2024-09-12 20h41.12.471714 +0530,
5,2,20.0,7.775679900005343,,7.759864499996183,7.775679900005343,8.275980299993535,8.275980299993535,8.275980299993535,8.575155400001677,9.059899200001382,right,20.0,0,0,0.7820172000065213,182340,001,2024-09-12_20h41.00.415,adaptive_staircase,2024.1.5,None,2024-09-12 20h41.12.471714 +0530,
6,2,20.0,9.07504599999811,,9.059985100000631,9.07504599999811,9.558447200004593,9.558447200004593,9.575880200005486,9.858816699997988,10.460501099994872,left,-20.0,0,0,0.8970169999956852,182340,001,2024-09-12_20h41.00.415,adaptive_staircase,2024.1.5,None,2024-09-12 20h41.12.471714 +0530,
7,2,20.0,10.475896400006604,,10.460634699993534,10.475896400006604,10.975291800001287,10.975291800001287,10.975291800001287,11.275533899999573,11.910132799996063,left,-20.0,0,0,0.917819900001632,182340,001,2024-09-12_20h41.00.415,adaptive_staircase,2024.1.5,None,2024-09-12 20h41.12.471714 +0530,
8,2,20.0,11.925708099995973,,11.91025410000293,11.925708099995973,12.425047900003847,12.425047900003847,12.425047900003847,12.72482879999734,13.144715600006748,right,20.0,0,0,0.7052333000028739,182340,001,2024-09-12_20h41.00.415,adaptive_staircase,2024.1.5,None,2024-09-12 20h41.12.471714 +0530,
9,2,20.0,13.158796400006395,,13.144887300004484,13.158796400006395,13.659129899999243,13.659129899999243,13.659129899999243,13.958613099996,14.41021180000098,left,-20.0,0,0,0.7347229000006337,182340,001,2024-09-12_20h41.00.415,adaptive_staircase,2024.1.5,None,2024-09-12 20h41.12.471714 +0530,
10,2,20.0,14.425240299999132,,14.410332100000232,14.425240299999132,14.925460600003134,14.925460600003134,14.925460600003134,15.225081600001431,15.759700800001156,right,20.0,0,0,0.8217143000074429,182340,001,2024-09-12_20h41.00.415,adaptive_staircase,2024.1.5,None,2024-09-12 20h41.12.471714 +0530,
11,2,20.0,15.775046399998246,,15.759866899999906,15.775046399998246,16.274770599993644,16.274770599993644,16.274770599993644,16.57569169999624,17.22666489999392,left,-20.0,0,0,0.9462417000031564,182340,001,2024-09-12_20h41.00.415,adaptive_staircase,2024.1.5,None,2024-09-12 20h41.12.471714 +0530,
12,2,20.0,17.242281200000434,,17.226804599995376,17.242281200000434,17.74163229999249,17.74163229999249,17.74163229999249,18.04176870000083,18.676077199997962,right,20.0,0,0,0.9280510999960825,182340,001,2024-09-12_20h41.00.415,adaptive_staircase,2024.1.5,None,2024-09-12 20h41.12.471714 +0530,
13,2,20.0,18.691622800004552,,18.676199699999415,18.691622800004552,19.175357700005407,19.175357700005407,19.19187249999959,19.474961999992956,19.960112899992964,left,-20.0,0,0,0.7800827000028221,182340,001,2024-09-12_20h41.00.415,adaptive_staircase,2024.1.5,None,2024-09-12 20h41.12.471714 +0530,
14,2,20.0,19.975287399996887,,19.960237599996617,19.975287399996887,20.47476660000393,20.47476660000393,20.47476660000393,20.774437600004603,21.809712000002037,left,-20.0,0,0,1.3177397000108613,182340,001,2024-09-12_20h41.00.415,adaptive_staircase,2024.1.5,None,2024-09-12 20h41.12.471714 +0530,
15,2,20.0,21.824910800001817,,21.809842300004675,21.824910800001817,22.324629199996707,22.324629199996707,22.324629199996707,22.624836400005734,23.626350199992885,right,20.0,0,0,1.297688599996036,182340,001,2024-09-12_20h41.00.415,adaptive_staircase,2024.1.5,None,2024-09-12 20h41.12.471714 +0530,
16,2,20.0,23.64203489999636,,23.626510300004156,23.64203489999636,24.14219929999672,24.14219929999672,24.14219929999672,24.44215200000326,25.24265080000623,left,-20.0,0,0,1.0850346000079298,182340,001,2024-09-12_20h41.00.415,adaptive_staircase,2024.1.5,None,2024-09-12 20h41.12.471714 +0530,
17,2,20.0,25.257950600003824,,25.242741099995328,25.257950600003824,25.758227300000726,25.758227300000726,25.758227300000726,26.057803799994872,26.79338899999857,left,-20.0,0,0,1.0332065999973565,182340,001,2024-09-12_20h41.00.415,adaptive_staircase,2024.1.5,None,2024-09-12 20h41.12.471714 +0530,
18,2,20.0,26.80819710000651,,26.793504100001883,26.80819710000651,27.307985599996755,27.307985599996755,27.307985599996755,27.607766899993294,28.175914399995236,left,-20.0,0,0,0.8551349000044866,182340,001,2024-09-12_20h41.00.415,adaptive_staircase,2024.1.5,None,2024-09-12 20h41.12.471714 +0530,
19,2,20.0,28.191561500003445,,28.176035800002865,28.191561500003445,28.690743400002248,28.690743400002248,28.690743400002248,28.991055100006633,29.725873799994588,left,-20.0,0,0,1.0316105999954743,182340,001,2024-09-12_20h41.00.415,adaptive_staircase,2024.1.5,None,2024-09-12 20h41.12.471714 +0530,
20,2,20.0,29.741118299993104,,29.726016600005096,29.741118299993104,30.22548029999598,30.22548029999598,30.241580699992483,30.525055899997824,32.309083400003146,left,-20.0,0,0,2.075973500002874,182340,001,2024-09-12_20h41.00.415,adaptive_staircase,2024.1.5,None,2024-09-12 20h41.12.471714 +0530,
21,2,20.0,32.324952900002245,,32.30921330000274,32.324952900002245,32.82461539999349,32.82461539999349,32.84110150000197,33.12385089999589,33.592468899994856,left,-20.0,0,0,0.7556870999978855,182340,001,2024-09-12_20h41.00.415,adaptive_staircase,2024.1.5,None,2024-09-12 20h41.12.471714 +0530,
22,2,20.0,33.6080365999951,,33.5925908999925,33.6080365999951,34.10780630000227,34.10780630000227,34.10780630000227,34.407365199993365,35.958455500003765,left,-20.0,0,0,1.8333910999936052,182340,001,2024-09-12_20h41.00.415,adaptive_staircase,2024.1.5,None,2024-09-12 20h41.12.471714 +0530,
23,2,20.0,35.97381399999722,,35.958543000000645,35.97381399999722,36.458630399996764,36.458630399996764,36.47470299999986,36.7739120000042,37.57499419999658,right,20.0,0,0,1.1021786999917822,182340,001,2024-09-12_20h41.00.415,adaptive_staircase,2024.1.5,None,2024-09-12 20h41.12.471714 +0530,
24,2,20.0,37.59134260000428,,37.57509460000438,37.59134260000428,38.07418599999801,38.07418599999801,38.09088829999382,38.37363449999248,39.19134629999462,right,20.0,0,0,1.1033983000088483,182340,001,2024-09-12_20h41.00.415,adaptive_staircase,2024.1.5,None,2024-09-12 20h41.12.471714 +0530,
25,2,20.0,39.20759249999537,,39.191447499993956,39.20759249999537,39.707816499998444,39.707816499998444,39.707816499998444,40.00728629999503,41.67557969999325,right,20.0,0,0,1.9613425999996252,182340,001,2024-09-12_20h41.00.415,adaptive_staircase,2024.1.5,None,2024-09-12 20h41.12.471714 +0530,
26,2,20.0,41.69060000000172,,41.67568250000477,41.69060000000172,42.19055739999749,42.19055739999749,42.19055739999749,42.49092419999943,44.125322199994116,left,-20.0,0,0,1.9298123000044143,182340,001,2024-09-12_20h41.00.415,adaptive_staircase,2024.1.5,None,2024-09-12 20h41.12.471714 +0530,
27,2,20.0,44.139999699997134,,44.12549750000471,44.139999699997134,44.63998389999324,44.63998389999324,44.63998389999324,44.94055290000688,54.60759390000021,left,-20.0,0,0,9.952045900005032,182340,001,2024-09-12_20h41.00.415,adaptive_staircase,2024.1.5,None,2024-09-12 20h41.12.471714 +0530,
28,1,20.0,54.62339130000328,,54.60768780000217,54.62339130000328,55.12369490000128,55.12369490000128,55.12369490000128,55.42278759999317,59.42416520000552,left,-20.0,1,1,4.298386299997219,182340,001,2024-09-12_20h41.00.415,adaptive_staircase,2024.1.5,None,2024-09-12 20h41.12.471714 +0530,
29,1,19.0,59.43977029999951,,59.424283500004094,59.43977029999951,59.9399451000063,59.9399451000063,59.9399451000063,60.239308100004564,62.4916055000067,right,19.0,1,1,2.5481542000052286,182340,001,2024-09-12_20h41.00.415,adaptive_staircase,2024.1.5,None,2024-09-12 20h41.12.471714 +0530,
30,1,19.0,62.50690100000065,,62.49173409999639,62.50690100000065,63.00620839999465,63.00620839999465,63.00620839999465,63.3061713000061,64.40682809999271,left,-19.0,1,1,1.3909466999903088,182340,001,2024-09-12_20h41.00.415,adaptive_staircase,2024.1.5,None,2024-09-12 20h41.12.471714 +0530,
31,1,19.0,64.42292250000173,,64.40691340000194,64.42292250000173,64.90626839999459,64.90626839999459,64.92267709999578,65.20687890000409,65.6912888999941,right,19.0,1,1,0.7769074000098044,182340,001,2024-09-12_20h41.00.415,adaptive_staircase,2024.1.5,None,2024-09-12 20h41.12.471714 +0530,
32,1,18.0,65.7065380999993,,65.69141539999691,65.7065380999993,66.20677659999637,66.20677659999637,66.20677659999637,66.52274000000034,67.15751140000066,left,-18.0,1,1,0.9452171000011731,182340,001,2024-09-12_20h41.00.415,adaptive_staircase,2024.1.5,None,2024-09-12 20h41.12.471714 +0530,
33,1,18.0,67.17255319999822,,67.157615300006,67.17255319999822,67.67287470000156,67.67287470000156,67.67287470000156,67.97212439999566,68.8408907999983,left,-18.0,1,1,1.1532579999911832,182340,001,2024-09-12_20h41.00.415,adaptive_staircase,2024.1.5,None,2024-09-12 20h41.12.471714 +0530,
34,1,18.0,68.85624680000183,,68.84101750000264,68.85624680000183,69.35610259999521,69.35610259999521,69.35610259999521,69.6564262000029,70.19044669999857,right,18.0,1,1,0.8193071999994572,182340,001,2024-09-12_20h41.00.415,adaptive_staircase,2024.1.5,None,2024-09-12 20h41.12.471714 +0530,
35,1,17.0,70.2064909000037,,70.19052859999647,70.2064909000037,70.70638560000225,70.70638560000225,70.70638560000225,71.00537109999277,71.77425099999527,left,-17.0,0,0,1.051762700008112,182340,001,2024-09-12_20h41.00.415,adaptive_staircase,2024.1.5,None,2024-09-12 20h41.12.471714 +0530,
36,1,18.0,71.78939760000503,,71.77437899999495,71.78939760000503,72.289348899998,72.289348899998,72.289348899998,72.58888510000543,75.34122839999327,right,18.0,0,0,3.050152900003013,182340,001,2024-09-12_20h41.00.415,adaptive_staircase,2024.1.5,None,2024-09-12 20h41.12.471714 +0530,
37,1,19.0,75.35570559999906,,75.34137389999523,75.35570559999906,75.85649000000558,75.85649000000558,75.85649000000558,,75.90849539999908,right,19.0,1,1,0.039138599997386336,182340,001,2024-09-12_20h41.00.415,adaptive_staircase,2024.1.5,None,2024-09-12 20h41.12.471714 +0530,
38,1,19.0,75.92276319999655,,75.90864559999318,75.92276319999655,76.42279939999571,76.42279939999571,76.42279939999571,,76.47468519999529,right,19.0,0,0,0.04293499999039341,182340,001,2024-09-12_20h41.00.415,adaptive_staircase,2024.1.5,None,2024-09-12 20h41.12.471714 +0530,
39,1,20.0,76.48968389999936,,76.4748350000009,76.48968389999936,76.9898683999927,76.9898683999927,76.9898683999927,,77.07497539999895,left,-20.0,1,1,0.07766389999596868,182340,001,2024-09-12_20h41.00.415,adaptive_staircase,2024.1.5,None,2024-09-12 20h41.12.471714 +0530,
40,1,20.0,77.08956469999976,,77.07512589999533,77.08956469999976,77.58939819999796,77.58939819999796,77.58939819999796,,77.65824609999254,right,20.0,0,0,0.05157199999666773,182340,001,2024-09-12_20h41.00.415,adaptive_staircase,2024.1.5,None,2024-09-12 20h41.12.471714 +0530,
41,1,20.0,77.67311200000404,,77.6584198000055,77.67311200000404,78.17198319999443,78.17198319999443,78.17198319999443,,78.33956880000187,right,20.0,1,1,0.15558330000203568,182340,001,2024-09-12_20h41.00.415,adaptive_staircase,2024.1.5,None,2024-09-12 20h41.12.471714 +0530,
42,1,20.0,78.35524370000348,,78.33963620000577,78.35524370000348,78.83943089999957,78.83943089999957,78.85602829999698,,79.04069520000485,left,-20.0,0,0,0.19583409999904688,182340,001,2024-09-12_20h41.00.415,adaptive_staircase,2024.1.5,None,2024-09-12 20h41.12.471714 +0530,
43,1,20.0,79.05591409999761,,79.04085340000165,79.05591409999761,79.55553159999545,79.55553159999545,79.55553159999545,79.85548070000368,80.19079560000682,left,-20.0,1,1,0.6209553999942727,182340,001,2024-09-12_20h41.00.415,adaptive_staircase,2024.1.5,None,2024-09-12 20h41.12.471714 +0530,
44,1,20.0,80.20573190000141,,80.19094159999804,80.20573190000141,80.70617520000087,80.70617520000087,80.70617520000087,81.00570199999493,82.55732039999566,left,-20.0,1,1,1.8396116999938386,182340,001,2024-09-12_20h41.00.415,adaptive_staircase,2024.1.5,None,2024-09-12 20h41.12.471714 +0530,
45,1,20.0,82.57204499999352,,82.55742919999466,82.57204499999352,83.07232740000472,83.07232740000472,83.07232740000472,83.3721302000049,83.4396729,right,20.0,0,0,0.35571609999169596,182340,001,2024-09-12_20h41.00.415,adaptive_staircase,2024.1.5,None,2024-09-12 20h41.12.471714 +0530,
46,1,20.0,83.45474279999326,,83.43976579999435,83.45474279999326,83.9386824999965,83.9386824999965,83.95523669999966,84.23862829999416,88.57402060000459,left,-20.0,0,0,4.6302361999987625,182340,001,2024-09-12_20h41.00.415,adaptive_staircase,2024.1.5,None,2024-09-12 20h41.12.471714 +0530,
47,1,20.0,88.58940989999974,,88.57418320000579,88.58940989999974,89.08833889999369,89.08833889999369,89.1051918000012,89.38835930000641,89.37266189999355,right,20.0,1,1,0.2775748999993084,182340,001,2024-09-12_20h41.00.415,adaptive_staircase,2024.1.5,None,2024-09-12 20h41.12.471714 +0530,
48,1,20.0,89.38835930000641,,89.37276569999813,89.38835930000641,89.87227079999866,89.87227079999866,89.8886477000051,,90.07439619999786,left,-20.0,0,0,0.2001929999969434,182340,001,2024-09-12_20h41.00.415,adaptive_staircase,2024.1.5,None,2024-09-12 20h41.12.471714 +0530,
49,1,20.0,90.08883039999637,,90.07456120000279,90.08883039999637,90.58797090000007,90.58797090000007,90.60476790000394,,90.68910259999393,left,-20.0,0,0,0.08413099999597762,182340,001,2024-09-12_20h41.00.415,adaptive_staircase,2024.1.5,None,2024-09-12 20h41.12.471714 +0530,
50,1,20.0,90.70478719999664,,90.68919279999682,90.70478719999664,91.18957509999746,91.18957509999746,91.2056295999937,91.50562440000067,91.77417790000618,left,-20.0,0,0,0.5723845000029542,182340,001,2024-09-12_20h41.00.415,adaptive_staircase,2024.1.5,None,2024-09-12 20h41.12.471714 +0530,
51,1,20.0,91.78931819999707,,91.7743480999925,91.78931819999707,92.28843699999561,92.28843699999561,92.30485479999334,92.58798070000194,92.70603630000551,left,-20.0,0,0,0.4025131000089459,182340,001,2024-09-12_20h41.00.415,adaptive_staircase,2024.1.5,None,2024-09-12 20h41.12.471714 +0530,
52,1,20.0,92.72104259999469,,92.70612220000476,92.72104259999469,93.20540069999697,93.20540069999697,93.22202980000293,93.50593230000231,93.65619559999323,right,20.0,0,0,0.4379330000083428,182340,001,2024-09-12_20h41.00.415,adaptive_staircase,2024.1.5,None,2024-09-12 20h41.12.471714 +0530,
53,1,20.0,93.67102900000464,,93.65630190000229,93.67102900000464,94.15513319999445,94.15513319999445,94.17184429999907,94.4552096999978,94.59056729999429,left,-20.0,1,1,0.43123349999950733,182340,001,2024-09-12_20h41.00.415,adaptive_staircase,2024.1.5,None,2024-09-12 20h41.12.471714 +0530,
54,1,20.0,94.60537010000553,,94.59073140000692,94.60537010000553,95.10447489999933,95.10447489999933,95.10447489999933,95.40472950000549,95.5722073999932,left,-20.0,1,1,0.45127530000172555,182340,001,2024-09-12_20h41.00.415,adaptive_staircase,2024.1.5,None,2024-09-12 20h41.12.471714 +0530,
55,0.5,20.0,95.58767680000165,,95.57233680000354,95.58767680000165,96.07148769999912,96.07148769999912,96.08818570000585,96.37189949999447,96.62273879999702,right,20.0,1,1,0.5343690000008792,182340,001,2024-09-12_20h41.00.415,adaptive_staircase,2024.1.5,None,2024-09-12 20h41.12.471714 +0530,
56,0.5,19.5,96.63779110000178,,96.6228906000033,96.63779110000178,97.13812600000529,97.13812600000529,97.13812600000529,97.43853909999598,97.62309799999639,left,-19.5,1,1,0.4713764999905834,182340,001,2024-09-12_20h41.00.415,adaptive_staircase,2024.1.5,None,2024-09-12 20h41.12.471714 +0530,
57,0.5,19.5,97.63825239999278,,97.6232072999992,97.63825239999278,98.13806250000198,98.13806250000198,98.13806250000198,98.4381837999972,98.77364440000383,right,19.5,1,1,0.6251904999953695,182340,001,2024-09-12_20h41.00.415,adaptive_staircase,2024.1.5,None,2024-09-12 20h41.12.471714 +0530,
58,0.5,19.5,98.78843050000432,,98.77382279999438,98.78843050000432,99.28809010000259,99.28809010000259,99.28809010000259,99.58771039999556,99.60568209999474,left,-19.5,1,1,0.3015760999987833,182340,001,2024-09-12_20h41.00.415,adaptive_staircase,2024.1.5,None,2024-09-12 20h41.12.471714 +0530,
59,0.5,19.0,99.62133179999364,,99.60578389999864,99.62133179999364,100.12113499999396,100.12113499999396,100.12113499999396,100.4209925000032,100.67391399999906,left,-19.0,1,1,0.5444061000016518,182340,001,2024-09-12_20h41.00.415,adaptive_staircase,2024.1.5,None,2024-09-12 20h41.12.471714 +0530,
60,0.5,19.0,100.68803400000616,,100.67407710000407,100.68803400000616,101.18786970000656,101.18786970000656,101.18786970000656,101.48854530000244,101.72335800000292,left,-19.0,1,1,0.5208542000036687,182340,001,2024-09-12_20h41.00.415,adaptive_staircase,2024.1.5,None,2024-09-12 20h41.12.471714 +0530,
61,0.5,19.0,101.73856060000253,,101.72352410000167,101.73856060000253,102.23814279999351,102.23814279999351,102.25441559999308,102.53800339999725,102.5569828000007,left,-19.0,1,1,0.3128441000008024,182340,001,2024-09-12_20h41.00.415,adaptive_staircase,2024.1.5,None,2024-09-12 20h41.12.471714 +0530,
62,0.5,18.5,102.57162410000456,,102.55715500000224,102.57162410000456,103.07125459999952,103.07125459999952,103.07125459999952,103.37143879999348,103.6556569999957,right,18.5,1,1,0.5803560999920592,182340,001,2024-09-12_20h41.00.415,adaptive_staircase,2024.1.5,None,2024-09-12 20h41.12.471714 +0530,
63,0.5,18.5,103.67111789999763,,103.6557596000057,103.67111789999763,104.17121080000652,104.17121080000652,104.17121080000652,104.47161249999772,104.5398775000067,right,18.5,1,1,0.3610371000104351,182340,001,2024-09-12_20h41.00.415,adaptive_staircase,2024.1.5,None,2024-09-12 20h41.12.471714 +0530,
64,0.5,18.5,104.55465720000211,,104.5400695999997,104.55465720000211,105.0545817999955,105.0545817999955,105.0545817999955,105.35440409999865,105.42280089999258,left,-18.5,0,0,0.3550838999944972,182340,001,2024-09-12_20h41.00.415,adaptive_staircase,2024.1.5,None,2024-09-12 20h41.12.471714 +0530,
65,0.5,19.0,105.43800949999422,,105.42292769999767,105.43800949999422,105.93809789999796,105.93809789999796,105.93809789999796,106.23801869999443,106.65600069999346,right,19.0,1,1,0.7123863000015263,182340,001,2024-09-12_20h41.00.415,adaptive_staircase,2024.1.5,None,2024-09-12 20h41.12.471714 +0530,
66,0.5,19.0,106.67129430000205,,106.65616189999855,106.67129430000205,107.17093819999718,107.17093819999718,107.17093819999718,107.47159210000245,107.50682049999887,left,-19.0,1,1,0.3299244999943767,182340,001,2024-09-12_20h41.00.415,adaptive_staircase,2024.1.5,None,2024-09-12 20h41.12.471714 +0530,
67,0.5,19.0,107.52151340000273,,107.50698799999373,107.52151340000273,108.02028719999362,108.02028719999362,108.02028719999362,108.32092759999796,108.48895389999961,right,19.0,1,1,0.455250300001353,182340,001,2024-09-12_20h41.00.415,adaptive_staircase,2024.1.5,None,2024-09-12 20h41.12.471714 +0530,
68,0.5,18.5,108.50380760000553,,108.48911330000556,108.50380760000553,109.00437429999874,109.00437429999874,109.00437429999874,,109.240486900002,left,-18.5,1,1,0.2328743999969447,182340,001,2024-09-12_20h41.00.415,adaptive_staircase,2024.1.5,None,2024-09-12 20h41.12.471714 +0530,
69,0.5,18.5,109.25479079999786,,109.24061569999321,109.25479079999786,109.75375610000629,109.75375610000629,109.75375610000629,110.05369919999794,110.05523929999617,right,18.5,1,1,0.2934960999991745,182340,001,2024-09-12_20h41.00.415,adaptive_staircase,2024.1.5,None,2024-09-12 20h41.12.471714 +0530,
70,0.5,18.5,110.0702736999956,,110.0553157999966,110.0702736999956,110.5547871000017,110.5547871000017,110.57144509999489,110.85457060000044,110.87226560000272,left,-18.5,1,1,0.3120388999959687,182340,001,2024-09-12_20h41.00.415,adaptive_staircase,2024.1.5,None,2024-09-12 20h41.12.471714 +0530,
71,0.5,18.0,110.88774079999712,,110.87242260000494,110.88774079999712,111.38690450000286,111.38690450000286,111.38690450000286,111.68720620000386,111.68863330000022,right,18.0,1,1,0.2866232999949716,182340,001,2024-09-12_20h41.00.415,adaptive_staircase,2024.1.5,None,2024-09-12 20h41.12.471714 +0530,
72,0.5,18.0,111.7040929000068,,111.68878179999592,111.7040929000068,112.20436230000632,112.20436230000632,112.20436230000632,,112.47199289999844,right,18.0,0,0,0.25448879999748897,182340,001,2024-09-12_20h41.00.415,adaptive_staircase,2024.1.5,None,2024-09-12 20h41.12.471714 +0530,
73,0.5,18.5,112.48722270000144,,112.4721159000037,112.48722270000144,112.98710359999677,112.98710359999677,112.98710359999677,113.28713969999808,113.7893069999991,right,18.5,1,1,0.7887244000012288,182340,001,2024-09-12_20h41.00.415,adaptive_staircase,2024.1.5,None,2024-09-12 20h41.12.471714 +0530,
74,0.5,18.5,113.80454219999956,,113.7894718000025,113.80454219999956,114.3038058999955,114.3038058999955,114.3038058999955,114.60426670000015,114.75572840000677,right,18.5,1,1,0.43986969999969006,182340,001,2024-09-12_20h41.00.415,adaptive_staircase,2024.1.5,None,2024-09-12 20h41.12.471714 +0530,
75,0.5,18.5,114.77123680000659,,114.75589859999309,114.77123680000659,115.27121140000236,115.27121140000236,115.27121140000236,115.57075970000005,115.7553343000036,left,-18.5,1,1,0.4767390999913914,182340,001,2024-09-12_20h41.00.415,adaptive_staircase,2024.1.5,None,2024-09-12 20h41.12.471714 +0530,
76,0.5,18.0,115.7706932000001,,115.755456400002,115.7706932000001,116.27073669999663,116.27073669999663,116.27073669999663,116.5712085999985,116.70617020000645,left,-18.0,1,1,0.4231627999979537,182340,001,2024-09-12_20h41.00.415,adaptive_staircase,2024.1.5,None,2024-09-12 20h41.12.471714 +0530,
77,0.5,18.0,116.72095309999713,,116.70632939999632,116.72095309999713,117.22073669999372,117.22073669999372,117.22073669999372,117.52117890000227,117.68742639999255,left,-18.0,1,1,0.4593332999938866,182340,001,2024-09-12_20h41.00.415,adaptive_staircase,2024.1.5,None,2024-09-12 20h41.12.471714 +0530,
78,0.5,18.0,117.70364059999702,,117.68749620000017,117.70364059999702,118.18712669999513,118.18712669999513,118.20379749999847,118.48747659999935,118.62191899999743,right,18.0,1,1,0.42136069999833126,182340,001,2024-09-12_20h41.00.415,adaptive_staircase,2024.1.5,None,2024-09-12 20h41.12.471714 +0530,
79,0.5,17.5,118.63676670000132,,118.62204240000574,118.63676670000132,119.13687279999431,119.13687279999431,119.13687279999431,119.43684100000246,119.55602849999559,left,-17.5,1,1,0.40170770000258926,182340,001,2024-09-12_20h41.00.415,adaptive_staircase,2024.1.5,None,2024-09-12 20h41.12.471714 +0530,
80,0.5,17.5,119.57095330000448,,119.55618899999536,119.57095330000448,120.06976379999833,120.06976379999833,120.0868507999985,120.37096349999774,120.62236660000053,left,-17.5,1,1,0.5463799999997718,182340,001,2024-09-12_20h41.00.415,adaptive_staircase,2024.1.5,None,2024-09-12 20h41.12.471714 +0530,
81,0.5,17.5,120.63702639999974,,120.62253399999463,120.63702639999974,121.13683249999303,121.13683249999303,121.13683249999303,121.43663929999457,121.72223939999822,right,17.5,1,1,0.574673499999335,182340,001,2024-09-12_20h41.00.415,adaptive_staircase,2024.1.5,None,2024-09-12 20h41.12.471714 +0530,
82,0.5,17.0,121.73690859999624,,121.72237370000221,121.73690859999624,122.2371351000038,122.2371351000038,122.2371351000038,122.53690700000152,122.52259819999745,left,-17.0,1,1,0.2705969999951776,182340,001,2024-09-12_20h41.00.415,adaptive_staircase,2024.1.5,None,2024-09-12 20h41.12.471714 +0530,
83,0.5,17.0,122.53690700000152,,122.52275020000525,122.53690700000152,123.0374337999965,123.0374337999965,123.0374337999965,123.33711849999963,123.37215739999374,left,-17.0,1,1,0.3199332000076538,182340,001,2024-09-12_20h41.00.415,adaptive_staircase,2024.1.5,None,2024-09-12 20h41.12.471714 +0530,
84,0.5,17.0,123.38704839999264,,123.37231809999503,123.38704839999264,123.8866263999953,123.8866263999953,123.8866263999953,124.1872938000015,124.25580689999333,left,-17.0,1,1,0.3672541999985697,182340,001,2024-09-12_20h41.00.415,adaptive_staircase,2024.1.5,None,2024-09-12 20h41.12.471714 +0530,
85,0.5,16.5,124.27064200000314,,124.25597559999733,124.27064200000314,124.770717899999,124.770717899999,124.770717899999,125.0703155999945,125.08888080000179,left,-16.5,1,1,0.3156161999941105,182340,001,2024-09-12_20h41.00.415,adaptive_staircase,2024.1.5,None,2024-09-12 20h41.12.471714 +0530,
86,0.5,16.5,125.10355970000091,,125.08905379999487,125.10355970000091,125.60386940000171,125.60386940000171,125.60386940000171,125.90361100000155,126.05536230000143,left,-16.5,1,1,0.4378690000012284,182340,001,2024-09-12_20h41.00.415,adaptive_staircase,2024.1.5,None,2024-09-12 20h41.12.471714 +0530,
87,0.5,16.5,126.07049129999359,,126.0555275999941,126.07049129999359,126.57008200000564,126.57008200000564,126.57008200000564,126.87017860000196,126.92185860000609,right,16.5,0,0,0.3405670000065584,182340,001,2024-09-12_20h41.00.415,adaptive_staircase,2024.1.5,None,2024-09-12 20h41.12.471714 +0530,
88,0.5,17.0,126.93714419999742,,126.9220301000023,126.93714419999742,127.43706039999961,127.43706039999961,127.43706039999961,127.73727199999848,127.9885673999961,right,17.0,1,1,0.5384668000042439,182340,001,2024-09-12_20h41.00.415,adaptive_staircase,2024.1.5,None,2024-09-12 20h41.12.471714 +0530,
89,0.5,17.0,128.00346150000405,,127.98874349999824,128.00346150000405,128.50352559999737,128.50352559999737,128.50352559999737,128.8033204999956,128.88789689999248,left,-17.0,1,1,0.37426359999517445,182340,001,2024-09-12_20h41.00.415,adaptive_staircase,2024.1.5,None,2024-09-12 20h41.12.471714 +0530,
90,0.5,17.0,128.90343619999476,,128.88805229999707,128.90343619999476,129.40314700000454,129.40314700000454,129.40314700000454,129.70310210000025,130.0215637999936,right,17.0,1,1,0.6042773999943165,182340,001,2024-09-12_20h41.00.415,adaptive_staircase,2024.1.5,None,2024-09-12 20h41.12.471714 +0530,
91,0.5,16.5,130.03664049999497,,130.02172960000462,130.03664049999497,130.53640919999452,130.53640919999452,130.53640919999452,130.8368288000056,130.9719643999997,left,-16.5,1,1,0.42888950000633486,182340,001,2024-09-12_20h41.00.415,adaptive_staircase,2024.1.5,None,2024-09-12 20h41.12.471714 +0530,
92,0.5,16.5,130.9869663999998,,130.97212570000556,130.9869663999998,131.48702790000243,131.48702790000243,131.48702790000243,131.78677979999338,131.95493229999556,right,16.5,1,1,0.46112449999782257,182340,001,2024-09-12_20h41.00.415,adaptive_staircase,2024.1.5,None,2024-09-12 20h41.12.471714 +0530,
93,0.5,16.5,131.96958079999604,,131.95505960000446,131.96958079999604,132.47007720000693,132.47007720000693,132.47007720000693,132.77005560000543,132.8713490999944,left,-16.5,1,1,0.39071519998833537,182340,001,2024-09-12_20h41.00.415,adaptive_staircase,2024.1.5,None,2024-09-12 20h41.12.471714 +0530,
94,0.5,16.0,132.88670410000486,,132.87151870000525,132.88670410000486,133.38646059999883,133.38646059999883,133.40237229999912,133.6866727000015,133.75461509999877,right,16.0,1,1,0.3534192999941297,182340,001,2024-09-12_20h41.00.415,adaptive_staircase,2024.1.5,None,2024-09-12 20h41.12.471714 +0530,
95,0.5,16.0,133.7695187999925,,133.75474329999997,133.7695187999925,134.26937490000273,134.26937490000273,134.26937490000273,134.56935580000572,134.5874799000012,left,-16.0,1,1,0.3066144000040367,182340,001,2024-09-12_20h41.00.415,adaptive_staircase,2024.1.5,None,2024-09-12 20h41.12.471714 +0530,
96,0.5,16.0,134.60305679999874,,134.5875764999946,134.60305679999874,135.10282169999846,135.10282169999846,135.10282169999846,135.4032745000004,135.42184700000507,right,16.0,1,1,0.3041254999989178,182340,001,2024-09-12_20h41.00.415,adaptive_staircase,2024.1.5,None,2024-09-12 20h41.12.471714 +0530,
97,0.5,15.5,135.43647109999438,,135.42203410000366,135.43647109999438,135.93620169999485,135.93620169999485,135.93620169999485,136.23615890000656,136.23738750000484,left,-15.5,1,1,0.29784400000062305,182340,001,2024-09-12_20h41.00.415,adaptive_staircase,2024.1.5,None,2024-09-12 20h41.12.471714 +0530,
98,0.5,15.5,136.2527987999929,,136.237489799998,136.2527987999929,136.75265510000463,136.75265510000463,136.75265510000463,137.05312979999871,137.12030579999555,right,15.5,1,1,0.3543714999977965,182340,001,2024-09-12_20h41.00.415,adaptive_staircase,2024.1.5,None,2024-09-12 20h41.12.471714 +0530,
99,0.5,15.5,137.13607279999997,,137.12040070000512,137.13607279999997,137.63579470000695,137.63579470000695,137.63579470000695,137.93602930000634,138.3703200000018,right,15.5,1,1,0.7312954000080936,182340,001,2024-09-12_20h41.00.415,adaptive_staircase,2024.1.5,None,2024-09-12 20h41.12.471714 +0530,
